"success","timeout","failed_images","failed_audio","failed_video","trial_type","trial_index","plugin_version","time_elapsed","mturk_participant_id","mturk_assignment_id","mturk_project_id","trial_id","rt","stimulus","response","view_history","condition","itemB","preceding_causal_itemA","preceding_similar_itemA","selected_choice","correct_response_attn","feedback","age","ethnicity","gender","race"
"true","false","[]","[]","[]","preload","0","2.1.0","22","713E41BD60F941D48527A3B54EE78227","","0199f2f5-cfd1-7796-8b7d-f747034b60cd","","","","","","","","","","","","","","","",""
"","","","","","html-button-response","1","2.1.0","16052","713E41BD60F941D48527A3B54EE78227","","0199f2f5-cfd1-7796-8b7d-f747034b60cd","consent","16021","<p><b>Consent Form</b></p> <div style=""text-align:left;background-color:lightblue; padding:2vw; max-width:80vw;""><p><b>Purpose:</b> This is a study demo; the purpose of the study is to understand how people think about the physical and social world.</p><p><b>Procedures:</b> In this study, you will watch videos, read sentences, or see pictures, and answer simple questions about them. This study should take approximately 4 minutes</p><p><b>Participation:</b> Participation in this study is voluntary. If you decide to join now, you can change your mind later. <p><b>Risks and benefits:</b> There are no risks associated with participating in this study. There are no direct benefits associated with participating in this study. </p><p><b>Use of data by study researchers:</b> The research team led by Shari Liu at JHU will have access to your answers. Researcher contact information:</b> This study is run by Dr. Shari Liu at JHU. If you have any questions or concerns about this study, or in the very unlikely event of a research-related injury, please contact sliu199@jhu.edu. <p> Do you consent to participate? </p>","0","","","","","","","","","","","",""
"","","","","","instructions","2","2.1.0","28815","713E41BD60F941D48527A3B54EE78227","","0199f2f5-cfd1-7796-8b7d-f747034b60cd","","12747","","","[{""page_index"":0,""viewing_time"":12747}]","","","","","","","","","","",""
"","","","","","html-button-response","3","2.1.0","47101","713E41BD60F941D48527A3B54EE78227","","0199f2f5-cfd1-7796-8b7d-f747034b60cd","","18276","<p style=""font-size: 25px;"">You are working on a new creature which currently has no capabilities. <br>Using your magical powers, you cast a spell which gives the creature a special substrate <em>Ulana</em>. <br><em>Ulana</em> gives the creature the capacity to <strong>think about something.</strong> <br>Which other capacity does <em>Ulana</em> give this creature? The capacity to... </p>","0","","named_substrate","think about something","get sick","remember something","<p style=""font-size: 25px;""><strong>remember something</strong></p>","","","","","",""
"","","","","","html-button-response","4","2.1.0","56015","713E41BD60F941D48527A3B54EE78227","","0199f2f5-cfd1-7796-8b7d-f747034b60cd","","8907","<p style=""font-size: 25px;"">You are working on a new creature which currently has no capabilities. <br>Using your magical powers, you cast a spell which gives the creature a special substrate <em>Ulana</em>. <br><em>Ulana</em> gives the creature the capacity to <strong>take a walk.</strong> <br>Which other capacity does <em>Ulana</em> give this creature? The capacity to... </p>","1","","named_substrate","take a walk","think about something","jump up and down","<p style=""font-size: 25px;""><strong>jump up and down</strong></p>","","","","","",""
"","","","","","html-button-response","5","2.1.0","65018","713E41BD60F941D48527A3B54EE78227","","0199f2f5-cfd1-7796-8b7d-f747034b60cd","","8995","<p style=""font-size: 25px;"">You are working on a new creature which currently has no capabilities. <br>Using your magical powers, you cast a spell which gives the creature a special substrate <em>Ulana</em>. <br><em>Ulana</em> gives the creature the capacity to <strong>reach for something.</strong> <br>Which other capacity does <em>Ulana</em> give this creature? The capacity to... </p>","1","","named_substrate","reach for something","become hungry","kick something","<p style=""font-size: 25px;""><strong>kick something</strong></p>","","","","","",""
"","","","","","html-button-response","6","2.1.0","75427","713E41BD60F941D48527A3B54EE78227","","0199f2f5-cfd1-7796-8b7d-f747034b60cd","","10403","<p style=""font-size: 25px;"">You are working on a new creature which currently has no capabilities. <br>Using your magical powers, you cast a spell which gives the creature a special substrate <em>Ulana</em>. <br><em>Ulana</em> gives the creature the capacity to <strong>kick something.</strong> <br>Which other capacity does <em>Ulana</em> give this creature? The capacity to... </p>","0","","named_substrate","kick something","think about something","sit down","<p style=""font-size: 25px;""><strong>sit down</strong></p>","","","","","",""
"","","","","","html-button-response","7","2.1.0","81459","713E41BD60F941D48527A3B54EE78227","","0199f2f5-cfd1-7796-8b7d-f747034b60cd","","6029","<p style=""font-size: 25px;"">You are working on a new creature which currently has no capabilities. <br>Using your magical powers, you cast a spell which gives the creature a special substrate <em>Ulana</em>. <br><em>Ulana</em> gives the creature the capacity to <strong>remember something.</strong> <br>Which other capacity does <em>Ulana</em> give this creature? The capacity to... </p>","0","","named_substrate","remember something","take a walk","think about something","<p style=""font-size: 25px;""><strong>think about something</strong></p>","","","","","",""
"","","","","","html-button-response","8","2.1.0","87773","713E41BD60F941D48527A3B54EE78227","","0199f2f5-cfd1-7796-8b7d-f747034b60cd","","6309","<p style=""font-size: 25px;"">For this question, ignore the previous instructions. <br>Instead, please select <strong>""choose what to do""</strong></p>","0","","attention_check","","","","choose what to do","choose what to do","","","","",""
"","","","","","html-button-response","9","2.1.0","99680","713E41BD60F941D48527A3B54EE78227","","0199f2f5-cfd1-7796-8b7d-f747034b60cd","","11893","<p style=""font-size: 25px;"">You are working on a new creature which currently has no capabilities. <br>Using your magical powers, you cast a spell which gives the creature a special substrate <em>Ulana</em>. <br><em>Ulana</em> gives the creature the capacity to <strong>become hungry.</strong> <br>Which other capacity does <em>Ulana</em> give this creature? The capacity to... </p>","1","","named_substrate","become hungry","take a walk","feel scared","<p style=""font-size: 25px;""><strong>feel scared</strong></p>","","","","","",""
"","","","","","html-button-response","10","2.1.0","104994","713E41BD60F941D48527A3B54EE78227","","0199f2f5-cfd1-7796-8b7d-f747034b60cd","","5308","<p style=""font-size: 25px;"">You are working on a new creature which currently has no capabilities. <br>Using your magical powers, you cast a spell which gives the creature a special substrate <em>Ulana</em>. <br><em>Ulana</em> gives the creature the capacity to <strong>experience pain.</strong> <br>Which other capacity does <em>Ulana</em> give this creature? The capacity to... </p>","1","","named_substrate","experience pain","kick something","get tired","<p style=""font-size: 25px;""><strong>get tired</strong></p>","","","","","",""
"","","","","","html-button-response","11","2.1.0","109482","713E41BD60F941D48527A3B54EE78227","","0199f2f5-cfd1-7796-8b7d-f747034b60cd","","4481","<p style=""font-size: 25px;"">You are working on a new creature which currently has no capabilities. <br>Using your magical powers, you cast a spell which gives the creature a special substrate <em>Ulana</em>. <br><em>Ulana</em> gives the creature the capacity to <strong>jump up and down.</strong> <br>Which other capacity does <em>Ulana</em> give this creature? The capacity to... </p>","0","","named_substrate","jump up and down","see something","sit down","<p style=""font-size: 25px;""><strong>sit down</strong></p>","","","","","",""
"","","","","","html-button-response","12","2.1.0","113622","713E41BD60F941D48527A3B54EE78227","","0199f2f5-cfd1-7796-8b7d-f747034b60cd","","4132","<p style=""font-size: 25px;"">You are working on a new creature which currently has no capabilities. <br>Using your magical powers, you cast a spell which gives the creature a special substrate <em>Ulana</em>. <br><em>Ulana</em> gives the creature the capacity to <strong>hear something.</strong> <br>Which other capacity does <em>Ulana</em> give this creature? The capacity to... </p>","0","","named_substrate","hear something","take a walk","see something","<p style=""font-size: 25px;""><strong>see something</strong></p>","","","","","",""
"","","","","","html-button-response","13","2.1.0","117482","713E41BD60F941D48527A3B54EE78227","","0199f2f5-cfd1-7796-8b7d-f747034b60cd","","3854","<p style=""font-size: 25px;"">You are working on a new creature which currently has no capabilities. <br>Using your magical powers, you cast a spell which gives the creature a special substrate <em>Ulana</em>. <br><em>Ulana</em> gives the creature the capacity to <strong>sit down.</strong> <br>Which other capacity does <em>Ulana</em> give this creature? The capacity to... </p>","0","","named_substrate","sit down","experience pain","jump up and down","<p style=""font-size: 25px;""><strong>jump up and down</strong></p>","","","","","",""
"","","","","","html-button-response","14","2.1.0","131149","713E41BD60F941D48527A3B54EE78227","","0199f2f5-cfd1-7796-8b7d-f747034b60cd","","13661","<p style=""font-size: 25px;"">You are working on a new creature which currently has no capabilities. <br>Using your magical powers, you cast a spell which gives the creature a special substrate <em>Ulana</em>. <br><em>Ulana</em> gives the creature the capacity to <strong>choose what to do.</strong> <br>Which other capacity does <em>Ulana</em> give this creature? The capacity to... </p>","0","","named_substrate","choose what to do","experience pain","remember something","<p style=""font-size: 25px;""><strong>remember something</strong></p>","","","","","",""
"","","","","","html-button-response","15","2.1.0","136533","713E41BD60F941D48527A3B54EE78227","","0199f2f5-cfd1-7796-8b7d-f747034b60cd","","5378","<p style=""font-size: 25px;"">You are working on a new creature which currently has no capabilities. <br>Using your magical powers, you cast a spell which gives the creature a special substrate <em>Ulana</em>. <br><em>Ulana</em> gives the creature the capacity to <strong>get tired.</strong> <br>Which other capacity does <em>Ulana</em> give this creature? The capacity to... </p>","0","","named_substrate","get tired","jump up and down","feel scared","<p style=""font-size: 25px;""><strong>feel scared</strong></p>","","","","","",""
"","","","","","html-button-response","16","2.1.0","140285","713E41BD60F941D48527A3B54EE78227","","0199f2f5-cfd1-7796-8b7d-f747034b60cd","","3746","<p style=""font-size: 25px;"">You are working on a new creature which currently has no capabilities. <br>Using your magical powers, you cast a spell which gives the creature a special substrate <em>Ulana</em>. <br><em>Ulana</em> gives the creature the capacity to <strong>get sick.</strong> <br>Which other capacity does <em>Ulana</em> give this creature? The capacity to... </p>","1","","named_substrate","get sick","see something","get tired","<p style=""font-size: 25px;""><strong>get tired</strong></p>","","","","","",""
"","","","","","html-button-response","17","2.1.0","143712","713E41BD60F941D48527A3B54EE78227","","0199f2f5-cfd1-7796-8b7d-f747034b60cd","","3423","<p style=""font-size: 25px;"">You are working on a new creature which currently has no capabilities. <br>Using your magical powers, you cast a spell which gives the creature a special substrate <em>Ulana</em>. <br><em>Ulana</em> gives the creature the capacity to <strong>see something.</strong> <br>Which other capacity does <em>Ulana</em> give this creature? The capacity to... </p>","1","","named_substrate","see something","take a walk","hear something","<p style=""font-size: 25px;""><strong>hear something</strong></p>","","","","","",""
"","","","","","html-button-response","18","2.1.0","147235","713E41BD60F941D48527A3B54EE78227","","0199f2f5-cfd1-7796-8b7d-f747034b60cd","","3514","<p style=""font-size: 25px;"">You are working on a new creature which currently has no capabilities. <br>Using your magical powers, you cast a spell which gives the creature a special substrate <em>Ulana</em>. <br><em>Ulana</em> gives the creature the capacity to <strong>feel scared.</strong> <br>Which other capacity does <em>Ulana</em> give this creature? The capacity to... </p>","0","","named_substrate","feel scared","see something","get tired","<p style=""font-size: 25px;""><strong>get tired</strong></p>","","","","","",""
"","","","","","instructions","19","2.1.0","171341","713E41BD60F941D48527A3B54EE78227","","0199f2f5-cfd1-7796-8b7d-f747034b60cd","","24103","","","[{""page_index"":0,""viewing_time"":24103}]","","","","","","","","","","",""
"","","","","","survey-html-form","20","2.1.0","255585","713E41BD60F941D48527A3B54EE78227","","0199f2f5-cfd1-7796-8b7d-f747034b60cd","demographics_survey","84232","","{""feedback"":""I chose the ability that was more closely related"",""age"":""57"",""gender"":""Male"",""other_gender"":"""",""race"":""Asian"",""other_race"":"""",""ethnicity"":""Non-Hispanic""}","","","","","","","","I chose the ability that was more closely related","57","Non-Hispanic","Male","Asian"
