"success","timeout","failed_images","failed_audio","failed_video","trial_type","trial_index","plugin_version","time_elapsed","mturk_participant_id","mturk_assignment_id","mturk_project_id","trial_id","rt","stimulus","response","view_history","condition","itemB","similar_itemA","slider_start","response_value","causal_itemA","attn_response","attn_correct","feedback","age","ethnicity","gender","race"
"true","false","[]","[]","[]","preload","0","2.0.0","9","FC5534DFB8D34CE095288C3A2678E412","8eaf71ef-ca51-4097-a07a-c8db274e4b6d","63b64ef0-0a17-45d4-99b8-0e7682bd8206","","","","","","","","","","","","","","","","","",""
"","","","","","html-button-response","1","2.0.0","8232","FC5534DFB8D34CE095288C3A2678E412","8eaf71ef-ca51-4097-a07a-c8db274e4b6d","63b64ef0-0a17-45d4-99b8-0e7682bd8206","consent","8220","<p><b>Consent Form</b></p> <div style=""text-align:left;background-color:lightblue; padding:2vw; max-width:80vw;""><p><b>Purpose:</b> The purpose of this study is to understand how people think about the physical and social world.</p><p><b>Procedures:</b> In this study, you will watch videos, read sentences, or see pictures, and answer simple questions about them. This study should take approximately 8 minutes</p><p><b>Participation:</b> Participation in this study is voluntary. If you decide to join now, you can change your mind later. </p><p><b>Payment:</b> You will be paid $15.00/hour for participating in this study. Given the estimated duration of 8 minutes, your payment will amount to $2.</p><p><b>Risks and benefits:</b> There are no risks associated with participating in this study. There are no direct benefits associated with participating in this study. </p><p><b>Use of data by study researchers:</b> The research team led by Shari Liu at JHU will have access to your answers. </p><p><b>Publication of results:</b> The results of the research may be presented at scientific meetings or published in scientific journals. Your individual responses may be published. We will never publish your name, the date that you participated, and any other information that could be used to identify you. </p><p><b>Researcher contact information:</b> This study is run by Dr. Shari Liu at JHU. If you have any questions or concerns about this study, or in the very unlikely event of a research-related injury, please contact sliu199@jhu.edu. </p><p><b>Research rights information:</b> If you have questions about your rights as a research participant or feel that you have not been treated fairly, please call the Homewood Institutional Review Board at Johns Hopkins University at (410) 516-6580. If you have any questions or issues completing the survey, please email Shari Liu at sliu199@jhu.edu. </p> </div><p> Do you consent to participate? </p>","0","","","","","","","","","","","","","",""
"","","","","","instructions","2","2.0.0","121382","FC5534DFB8D34CE095288C3A2678E412","8eaf71ef-ca51-4097-a07a-c8db274e4b6d","63b64ef0-0a17-45d4-99b8-0e7682bd8206","","113146","","","[{""page_index"":0,""viewing_time"":113146}]","","","","","","","","","","","","",""
"","","","","","html-slider-response","3","2.0.0","134710","FC5534DFB8D34CE095288C3A2678E412","8eaf71ef-ca51-4097-a07a-c8db274e4b6d","63b64ef0-0a17-45d4-99b8-0e7682bd8206","","13324","<p style=""font-size: 25px;"">A person <strong>jumped up and down</strong>, then they <strong>sat down</strong>.</p> 
               <p style=""font-size: 25px;"">Suppose that they didn't <strong>jump up and down</strong>. <br>Would they still have <strong>sat down at the same place</strong>?</p>","50","","similarity","reach for something","kick something","50","50","","","","","","","",""
"","","","","","html-slider-response","4","2.0.0","168917","FC5534DFB8D34CE095288C3A2678E412","8eaf71ef-ca51-4097-a07a-c8db274e4b6d","63b64ef0-0a17-45d4-99b8-0e7682bd8206","","34205","<p style=""font-size: 25px;"">A person <strong>thought about something</strong>, then they <strong>remembered something</strong>.</p> 
               <p style=""font-size: 25px;"">Suppose that they didn't <strong>think about something</strong>. <br>Would they still have <strong>remembered the same thing</strong>?</p>","57","","similarity","become hungry","experience pain","50","57","","","","","","","",""
"","","","","","html-slider-response","5","2.0.0","178798","FC5534DFB8D34CE095288C3A2678E412","8eaf71ef-ca51-4097-a07a-c8db274e4b6d","63b64ef0-0a17-45d4-99b8-0e7682bd8206","","9878","<p style=""font-size: 25px;"">A person <strong>jumped up and down</strong>, then they <strong>took a walk</strong>.</p> 
               <p style=""font-size: 25px;"">Suppose that they didn't <strong>jump up and down</strong>. <br>Would they still have <strong>taken the same walk</strong>?</p>","65","","similarity","see something","hear something","50","65","","","","","","","",""
"","","","","","html-slider-response","6","2.0.0","197382","FC5534DFB8D34CE095288C3A2678E412","8eaf71ef-ca51-4097-a07a-c8db274e4b6d","63b64ef0-0a17-45d4-99b8-0e7682bd8206","","18582","<p style=""font-size: 25px;"">A person <strong>saw something</strong>, then they <strong>heard something</strong>.</p> 
               <p style=""font-size: 25px;"">Suppose that they didn't <strong>see something</strong>. <br>Would they still have <strong>heard the same thing</strong>?</p>","77","","similarity","take a walk","jump up and down","50","77","","","","","","","",""
"","","","","","html-slider-response","7","2.0.0","214654","FC5534DFB8D34CE095288C3A2678E412","8eaf71ef-ca51-4097-a07a-c8db274e4b6d","63b64ef0-0a17-45d4-99b8-0e7682bd8206","","17269","<p style=""font-size: 25px;"">A person <strong>thought about something</strong>, then they <strong>kicked something</strong>.</p> 
               <p style=""font-size: 25px;"">Suppose that they didn't <strong>think about something</strong>. <br>Would they still have <strong>kicked the same thing</strong>?</p>","57","","counterfactual","get sick","","50","57","see something","","","","","","",""
"","","","","","html-slider-response","8","2.0.0","228982","FC5534DFB8D34CE095288C3A2678E412","8eaf71ef-ca51-4097-a07a-c8db274e4b6d","63b64ef0-0a17-45d4-99b8-0e7682bd8206","","14326","<p style=""font-size: 25px;"">A person <strong>experienced pain</strong>, then they <strong>became hungry</strong>.</p> 
               <p style=""font-size: 25px;"">Suppose that they didn't <strong>experience pain</strong>. <br>Would they still have <strong>become hungry all the same</strong>?</p>","87","","similarity","sit down","jump up and down","50","87","","","","","","","",""
"","","","","","html-slider-response","9","2.0.0","236494","FC5534DFB8D34CE095288C3A2678E412","8eaf71ef-ca51-4097-a07a-c8db274e4b6d","63b64ef0-0a17-45d4-99b8-0e7682bd8206","","7509","<p style=""font-size: 25px;"">A person <strong>saw something</strong>, then they <strong>got sick</strong>.</p> 
               <p style=""font-size: 25px;"">Suppose that they didn't <strong>see something</strong>. <br>Would they still have <strong>gotten sick in the same way</strong>?</p>","78","","counterfactual","experience pain","","50","78","kick something","","","","","","",""
"","","","","","html-slider-response","10","2.0.0","251518","FC5534DFB8D34CE095288C3A2678E412","8eaf71ef-ca51-4097-a07a-c8db274e4b6d","63b64ef0-0a17-45d4-99b8-0e7682bd8206","","15022","<p style=""font-size: 25px;"">A person <strong>experienced pain</strong>, then they <strong>sat down</strong>.</p> 
               <p style=""font-size: 25px;"">Suppose that they didn't <strong>experience pain</strong>. <br>Would they still have <strong>sat down at the same place</strong>?</p>","66","","counterfactual","reach for something","","50","66","become hungry","","","","","","",""
"","","","","","html-slider-response","11","2.0.0","260231","FC5534DFB8D34CE095288C3A2678E412","8eaf71ef-ca51-4097-a07a-c8db274e4b6d","63b64ef0-0a17-45d4-99b8-0e7682bd8206","","8710","<p style=""font-size: 25px;"">A person <strong>kicked something</strong>, then they <strong>experienced pain</strong>.</p> 
               <p style=""font-size: 25px;"">Suppose that they didn't <strong>kick something</strong>. <br>Would they still have <strong>experienced the same pain</strong>?</p>","40","","counterfactual","kick something","","50","40","think about something","","","","","","",""
"","","","","","html-slider-response","12","2.0.0","268175","FC5534DFB8D34CE095288C3A2678E412","8eaf71ef-ca51-4097-a07a-c8db274e4b6d","63b64ef0-0a17-45d4-99b8-0e7682bd8206","","7942","<p style=""font-size: 25px;"">A person <strong>jumped up and down</strong>, then they <strong>got tired</strong>.</p>
             <p style=""font-size: 25px;"">For this question, please select <strong>""definitely not""</strong></p>","0","","attention_check_counterfactual","","","50","","","0","yes","","","","",""
"","","","","","html-slider-response","13","2.0.0","284935","FC5534DFB8D34CE095288C3A2678E412","8eaf71ef-ca51-4097-a07a-c8db274e4b6d","63b64ef0-0a17-45d4-99b8-0e7682bd8206","","16757","<p style=""font-size: 25px;"">A person <strong>kicked something</strong>, then they <strong>reached for something</strong>.</p> 
               <p style=""font-size: 25px;"">Suppose that they didn't <strong>kick something</strong>. <br>Would they still have <strong>reached for the same thing</strong>?</p>","76","","similarity","think about something","remember something","50","76","","","","","","","",""
"","","","","","html-slider-response","14","2.0.0","318087","FC5534DFB8D34CE095288C3A2678E412","8eaf71ef-ca51-4097-a07a-c8db274e4b6d","63b64ef0-0a17-45d4-99b8-0e7682bd8206","","33150","<p style=""font-size: 25px;"">A person <strong>jumped up and down</strong>, then they <strong>kicked something</strong>.</p> 
               <p style=""font-size: 25px;"">Suppose that they didn't <strong>jump up and down</strong>. <br>Would they still have <strong>kicked the same thing</strong>?</p>","60","","similarity","get sick","get tired","50","60","","","","","","","",""
"","","","","","html-slider-response","15","2.0.0","330127","FC5534DFB8D34CE095288C3A2678E412","8eaf71ef-ca51-4097-a07a-c8db274e4b6d","63b64ef0-0a17-45d4-99b8-0e7682bd8206","","12038","<p style=""font-size: 25px;"">A person <strong>felt scared</strong>, then they <strong>chose what to do</strong>.</p> 
               <p style=""font-size: 25px;"">Suppose that they didn't <strong>feel scared</strong>. <br>Would they still have <strong>chosen to do the same thing</strong>?</p>","28","","counterfactual","hear something","","50","28","take a walk","","","","","","",""
"","","","","","html-slider-response","16","2.0.0","339191","FC5534DFB8D34CE095288C3A2678E412","8eaf71ef-ca51-4097-a07a-c8db274e4b6d","63b64ef0-0a17-45d4-99b8-0e7682bd8206","","9061","<p style=""font-size: 25px;"">A person <strong>remembered something</strong>, then they <strong>chose what to do</strong>.</p> 
               <p style=""font-size: 25px;"">Suppose that they didn't <strong>remember something</strong>. <br>Would they still have <strong>chosen to do the same thing</strong>?</p>","51","","similarity","hear something","see something","50","51","","","","","","","",""
"","","","","","html-slider-response","17","2.0.0","352664","FC5534DFB8D34CE095288C3A2678E412","8eaf71ef-ca51-4097-a07a-c8db274e4b6d","63b64ef0-0a17-45d4-99b8-0e7682bd8206","","13471","<p style=""font-size: 25px;"">A person <strong>saw something</strong>, then they <strong>felt scared</strong>.</p> 
               <p style=""font-size: 25px;"">Suppose that they didn't <strong>see something</strong>. <br>Would they still have <strong>felt scared all the same</strong>?</p>","30","","counterfactual","get tired","","50","30","jump up and down","","","","","","",""
"","","","","","html-slider-response","18","2.0.0","360671","FC5534DFB8D34CE095288C3A2678E412","8eaf71ef-ca51-4097-a07a-c8db274e4b6d","63b64ef0-0a17-45d4-99b8-0e7682bd8206","","8005","<p style=""font-size: 25px;"">A person <strong>took a walk</strong>, then they <strong>heard something</strong>.</p> 
               <p style=""font-size: 25px;"">Suppose that they didn't <strong>take a walk</strong>. <br>Would they still have <strong>heard the same thing</strong>?</p>","41","","counterfactual","take a walk","","50","41","think about something","","","","","","",""
"","","","","","html-slider-response","19","2.0.0","370791","FC5534DFB8D34CE095288C3A2678E412","8eaf71ef-ca51-4097-a07a-c8db274e4b6d","63b64ef0-0a17-45d4-99b8-0e7682bd8206","","10119","<p style=""font-size: 25px;"">A person <strong>thought about something</strong>, then they <strong>jumped up and down</strong>.</p> 
               <p style=""font-size: 25px;"">Suppose that they didn't <strong>think about something</strong>. <br>Would they still have <strong>jumped up and down</strong>?</p>","40","","counterfactual","feel scared","","50","40","see something","","","","","","",""
"","","","","","html-slider-response","20","2.0.0","379728","FC5534DFB8D34CE095288C3A2678E412","8eaf71ef-ca51-4097-a07a-c8db274e4b6d","63b64ef0-0a17-45d4-99b8-0e7682bd8206","","8934","<p style=""font-size: 25px;"">A person <strong>took a walk</strong>, then they <strong>remembered something</strong>.</p> 
               <p style=""font-size: 25px;"">Suppose that they didn't <strong>take a walk</strong>. <br>Would they still have <strong>remembered the same thing</strong>?</p>","64","","counterfactual","become hungry","","50","64","take a walk","","","","","","",""
"","","","","","html-slider-response","21","2.0.0","390144","FC5534DFB8D34CE095288C3A2678E412","8eaf71ef-ca51-4097-a07a-c8db274e4b6d","63b64ef0-0a17-45d4-99b8-0e7682bd8206","","10415","<p style=""font-size: 25px;"">A person <strong>became hungry</strong>, then they <strong>reached for something</strong>.</p> 
               <p style=""font-size: 25px;"">Suppose that they didn't <strong>become hungry</strong>. <br>Would they still have <strong>reached for the same thing</strong>?</p>","33","","counterfactual","think about something","","50","33","take a walk","","","","","","",""
"","","","","","html-slider-response","22","2.0.0","399520","FC5534DFB8D34CE095288C3A2678E412","8eaf71ef-ca51-4097-a07a-c8db274e4b6d","63b64ef0-0a17-45d4-99b8-0e7682bd8206","","9373","<p style=""font-size: 25px;"">A person <strong>felt scared</strong>, then they <strong>got tired</strong>.</p> 
               <p style=""font-size: 25px;"">Suppose that they didn't <strong>feel scared</strong>. <br>Would they still have <strong>gotten tired all the same</strong>?</p>","78","","similarity","remember something","think about something","50","78","","","","","","","",""
"","","","","","html-slider-response","23","2.0.0","406840","FC5534DFB8D34CE095288C3A2678E412","8eaf71ef-ca51-4097-a07a-c8db274e4b6d","63b64ef0-0a17-45d4-99b8-0e7682bd8206","","7318","<p style=""font-size: 25px;"">A person <strong>heard something</strong>, then they <strong>saw something</strong>.</p> 
               <p style=""font-size: 25px;"">Suppose that they didn't <strong>hear something</strong>. <br>Would they still have <strong>seen the same thing</strong>?</p>","63","","similarity","choose what to do","remember something","50","63","","","","","","","",""
"","","","","","html-slider-response","24","2.0.0","415672","FC5534DFB8D34CE095288C3A2678E412","8eaf71ef-ca51-4097-a07a-c8db274e4b6d","63b64ef0-0a17-45d4-99b8-0e7682bd8206","","8830","<p style=""font-size: 25px;"">A person <strong>thought about something</strong>, then they <strong>took a walk</strong>.</p> 
               <p style=""font-size: 25px;"">Suppose that they didn't <strong>think about something</strong>. <br>Would they still have <strong>taken the same walk</strong>?</p>","57","","counterfactual","see something","","50","57","take a walk","","","","","","",""
"","","","","","html-slider-response","25","2.0.0","420544","FC5534DFB8D34CE095288C3A2678E412","8eaf71ef-ca51-4097-a07a-c8db274e4b6d","63b64ef0-0a17-45d4-99b8-0e7682bd8206","","4870","<p style=""font-size: 25px;"">A person <strong>saw something</strong>, then they <strong>felt hungry</strong>.</p>
             <p style=""font-size: 25px;"">For this question, please select <strong>""definitely yes""</strong></p>","100","","attention_check_similarity","","","50","","","100","yes","","","","",""
"","","","","","html-slider-response","26","2.0.0","434928","FC5534DFB8D34CE095288C3A2678E412","8eaf71ef-ca51-4097-a07a-c8db274e4b6d","63b64ef0-0a17-45d4-99b8-0e7682bd8206","","14382","<p style=""font-size: 25px;"">A person <strong>became hungry</strong>, then they <strong>felt scared</strong>.</p> 
               <p style=""font-size: 25px;"">Suppose that they didn't <strong>become hungry</strong>. <br>Would they still have <strong>felt scared all the same</strong>?</p>","39","","similarity","get tired","feel scared","50","39","","","","","","","",""
"","","","","","html-slider-response","27","2.0.0","441312","FC5534DFB8D34CE095288C3A2678E412","8eaf71ef-ca51-4097-a07a-c8db274e4b6d","63b64ef0-0a17-45d4-99b8-0e7682bd8206","","6382","<p style=""font-size: 25px;"">A person <strong>got tired</strong>, then they <strong>got sick</strong>.</p> 
               <p style=""font-size: 25px;"">Suppose that they didn't <strong>get tired</strong>. <br>Would they still have <strong>gotten sick in the same way</strong>?</p>","73","","similarity","experience pain","feel scared","50","73","","","","","","","",""
"","","","","","html-slider-response","28","2.0.0","448552","FC5534DFB8D34CE095288C3A2678E412","8eaf71ef-ca51-4097-a07a-c8db274e4b6d","63b64ef0-0a17-45d4-99b8-0e7682bd8206","","7238","<p style=""font-size: 25px;"">A person <strong>took a walk</strong>, then they <strong>became hungry</strong>.</p> 
               <p style=""font-size: 25px;"">Suppose that they didn't <strong>take a walk</strong>. <br>Would they still have <strong>become hungry all the same</strong>?</p>","63","","counterfactual","sit down","","50","63","experience pain","","","","","","",""
"","","","","","html-slider-response","29","2.0.0","456264","FC5534DFB8D34CE095288C3A2678E412","8eaf71ef-ca51-4097-a07a-c8db274e4b6d","63b64ef0-0a17-45d4-99b8-0e7682bd8206","","7710","<p style=""font-size: 25px;"">A person <strong>took a walk</strong>, then they <strong>saw something</strong>.</p> 
               <p style=""font-size: 25px;"">Suppose that they didn't <strong>take a walk</strong>. <br>Would they still have <strong>seen the same thing</strong>?</p>","30","","counterfactual","choose what to do","","50","30","feel scared","","","","","","",""
"","","","","","html-slider-response","30","2.0.0","462521","FC5534DFB8D34CE095288C3A2678E412","8eaf71ef-ca51-4097-a07a-c8db274e4b6d","63b64ef0-0a17-45d4-99b8-0e7682bd8206","","6255","<p style=""font-size: 25px;"">A person <strong>took a walk</strong>, then they <strong>thought about something</strong>.</p> 
               <p style=""font-size: 25px;"">Suppose that they didn't <strong>take a walk</strong>. <br>Would they still have <strong>thought the same thing</strong>?</p>","55","","counterfactual","jump up and down","","50","55","think about something","","","","","","",""
"","","","","","html-slider-response","31","2.0.0","473457","FC5534DFB8D34CE095288C3A2678E412","8eaf71ef-ca51-4097-a07a-c8db274e4b6d","63b64ef0-0a17-45d4-99b8-0e7682bd8206","","10933","<p style=""font-size: 25px;"">A person <strong>felt scared</strong>, then they <strong>experienced pain</strong>.</p> 
               <p style=""font-size: 25px;"">Suppose that they didn't <strong>feel scared</strong>. <br>Would they still have <strong>experienced the same pain</strong>?</p>","37","","similarity","kick something","jump up and down","50","37","","","","","","","",""
"","","","","","html-slider-response","32","2.0.0","480888","FC5534DFB8D34CE095288C3A2678E412","8eaf71ef-ca51-4097-a07a-c8db274e4b6d","63b64ef0-0a17-45d4-99b8-0e7682bd8206","","7429","<p style=""font-size: 25px;"">A person <strong>sat down</strong>, then they <strong>jumped up and down</strong>.</p> 
               <p style=""font-size: 25px;"">Suppose that they didn't <strong>sit down</strong>. <br>Would they still have <strong>jumped up and down</strong>?</p>","51","","similarity","feel scared","become hungry","50","51","","","","","","","",""
"","","","","","html-slider-response","33","2.0.0","490528","FC5534DFB8D34CE095288C3A2678E412","8eaf71ef-ca51-4097-a07a-c8db274e4b6d","63b64ef0-0a17-45d4-99b8-0e7682bd8206","","9638","<p style=""font-size: 25px;"">A person <strong>remembered something</strong>, then they <strong>thought about something</strong>.</p> 
               <p style=""font-size: 25px;"">Suppose that they didn't <strong>remember something</strong>. <br>Would they still have <strong>thought the same thing</strong>?</p>","18","","similarity","jump up and down","sit down","50","18","","","","","","","",""
"","","","","","html-slider-response","34","2.0.0","498065","FC5534DFB8D34CE095288C3A2678E412","8eaf71ef-ca51-4097-a07a-c8db274e4b6d","63b64ef0-0a17-45d4-99b8-0e7682bd8206","","7535","<p style=""font-size: 25px;"">A person <strong>jumped up and down</strong>, then they <strong>got tired</strong>.</p> 
               <p style=""font-size: 25px;"">Suppose that they didn't <strong>jump up and down</strong>. <br>Would they still have <strong>gotten tired all the same</strong>?</p>","40","","counterfactual","remember something","","50","40","take a walk","","","","","","",""
"","","","","","instructions","35","2.0.0","508305","FC5534DFB8D34CE095288C3A2678E412","8eaf71ef-ca51-4097-a07a-c8db274e4b6d","63b64ef0-0a17-45d4-99b8-0e7682bd8206","","10238","","","[{""page_index"":0,""viewing_time"":10238}]","","","","","","","","","","","","",""
"","","","","","survey-html-form","36","2.0.0","557509","FC5534DFB8D34CE095288C3A2678E412","8eaf71ef-ca51-4097-a07a-c8db274e4b6d","63b64ef0-0a17-45d4-99b8-0e7682bd8206","demographics_survey","49185","","{""feedback"":""I tried to think of logical flow to events and alternate explanations."",""age"":""28"",""gender"":""Female"",""other_gender"":"""",""race"":""White"",""other_race"":"""",""ethnicity"":""Non-Hispanic""}","","","","","","","","","","I tried to think of logical flow to events and alternate explanations.","28","Non-Hispanic","Female","White"
