"success","timeout","failed_images","failed_audio","failed_video","trial_type","trial_index","plugin_version","time_elapsed","mturk_participant_id","mturk_assignment_id","mturk_project_id","trial_id","rt","stimulus","response","view_history","condition","itemB","similar_itemA","slider_start","response_value","causal_itemA","attn_response","attn_correct","feedback","age","ethnicity","gender","race"
"true","false","[]","[]","[]","preload","0","2.0.0","16","D528F5800F3149D48D843E454BA78585","4468217f-9906-48ac-9e2f-c0c7cddfc967","63b64ef0-0a17-45d4-99b8-0e7682bd8206","","","","","","","","","","","","","","","","","",""
"","","","","","html-button-response","1","2.0.0","2229","D528F5800F3149D48D843E454BA78585","4468217f-9906-48ac-9e2f-c0c7cddfc967","63b64ef0-0a17-45d4-99b8-0e7682bd8206","consent","2209","<p><b>Consent Form</b></p> <div style=""text-align:left;background-color:lightblue; padding:2vw; max-width:80vw;""><p><b>Purpose:</b> The purpose of this study is to understand how people think about the physical and social world.</p><p><b>Procedures:</b> In this study, you will watch videos, read sentences, or see pictures, and answer simple questions about them. This study should take approximately 8 minutes</p><p><b>Participation:</b> Participation in this study is voluntary. If you decide to join now, you can change your mind later. </p><p><b>Payment:</b> You will be paid $15.00/hour for participating in this study. Given the estimated duration of 8 minutes, your payment will amount to $2.</p><p><b>Risks and benefits:</b> There are no risks associated with participating in this study. There are no direct benefits associated with participating in this study. </p><p><b>Use of data by study researchers:</b> The research team led by Shari Liu at JHU will have access to your answers. </p><p><b>Publication of results:</b> The results of the research may be presented at scientific meetings or published in scientific journals. Your individual responses may be published. We will never publish your name, the date that you participated, and any other information that could be used to identify you. </p><p><b>Researcher contact information:</b> This study is run by Dr. Shari Liu at JHU. If you have any questions or concerns about this study, or in the very unlikely event of a research-related injury, please contact sliu199@jhu.edu. </p><p><b>Research rights information:</b> If you have questions about your rights as a research participant or feel that you have not been treated fairly, please call the Homewood Institutional Review Board at Johns Hopkins University at (410) 516-6580. If you have any questions or issues completing the survey, please email Shari Liu at sliu199@jhu.edu. </p> </div><p> Do you consent to participate? </p>","0","","","","","","","","","","","","","",""
"","","","","","instructions","2","2.0.0","104757","D528F5800F3149D48D843E454BA78585","4468217f-9906-48ac-9e2f-c0c7cddfc967","63b64ef0-0a17-45d4-99b8-0e7682bd8206","","102527","","","[{""page_index"":0,""viewing_time"":102527}]","","","","","","","","","","","","",""
"","","","","","html-slider-response","3","2.0.0","117286","D528F5800F3149D48D843E454BA78585","4468217f-9906-48ac-9e2f-c0c7cddfc967","63b64ef0-0a17-45d4-99b8-0e7682bd8206","","12523","<p style=""font-size: 25px;"">A person <strong>saw something</strong>, then they <strong>heard something</strong>.</p> 
               <p style=""font-size: 25px;"">Suppose that they didn't <strong>see something</strong>. <br>Would they still have <strong>heard the same thing</strong>?</p>","100","","similarity","experience pain","feel scared","50","100","","","","","","","",""
"","","","","","html-slider-response","4","2.0.0","128455","D528F5800F3149D48D843E454BA78585","4468217f-9906-48ac-9e2f-c0c7cddfc967","63b64ef0-0a17-45d4-99b8-0e7682bd8206","","11164","<p style=""font-size: 25px;"">A person <strong>saw something</strong>, then they <strong>got sick</strong>.</p> 
               <p style=""font-size: 25px;"">Suppose that they didn't <strong>see something</strong>. <br>Would they still have <strong>gotten sick in the same way</strong>?</p>","100","","counterfactual","become hungry","","50","100","take a walk","","","","","","",""
"","","","","","html-slider-response","5","2.0.0","140460","D528F5800F3149D48D843E454BA78585","4468217f-9906-48ac-9e2f-c0c7cddfc967","63b64ef0-0a17-45d4-99b8-0e7682bd8206","","12003","<p style=""font-size: 25px;"">A person <strong>got tired</strong>, then they <strong>got sick</strong>.</p> 
               <p style=""font-size: 25px;"">Suppose that they didn't <strong>get tired</strong>. <br>Would they still have <strong>gotten sick in the same way</strong>?</p>","100","","similarity","become hungry","experience pain","50","100","","","","","","","",""
"","","","","","html-slider-response","6","2.0.0","148025","D528F5800F3149D48D843E454BA78585","4468217f-9906-48ac-9e2f-c0c7cddfc967","63b64ef0-0a17-45d4-99b8-0e7682bd8206","","7561","<p style=""font-size: 25px;"">A person <strong>kicked something</strong>, then they <strong>experienced pain</strong>.</p> 
               <p style=""font-size: 25px;"">Suppose that they didn't <strong>kick something</strong>. <br>Would they still have <strong>experienced the same pain</strong>?</p>","17","","counterfactual","see something","","50","17","take a walk","","","","","","",""
"","","","","","html-slider-response","7","2.0.0","159438","D528F5800F3149D48D843E454BA78585","4468217f-9906-48ac-9e2f-c0c7cddfc967","63b64ef0-0a17-45d4-99b8-0e7682bd8206","","11409","<p style=""font-size: 25px;"">A person <strong>took a walk</strong>, then they <strong>thought about something</strong>.</p> 
               <p style=""font-size: 25px;"">Suppose that they didn't <strong>take a walk</strong>. <br>Would they still have <strong>thought the same thing</strong>?</p>","75","","counterfactual","remember something","","50","75","take a walk","","","","","","",""
"","","","","","html-slider-response","8","2.0.0","168398","D528F5800F3149D48D843E454BA78585","4468217f-9906-48ac-9e2f-c0c7cddfc967","63b64ef0-0a17-45d4-99b8-0e7682bd8206","","8957","<p style=""font-size: 25px;"">A person <strong>thought about something</strong>, then they <strong>took a walk</strong>.</p> 
               <p style=""font-size: 25px;"">Suppose that they didn't <strong>think about something</strong>. <br>Would they still have <strong>taken the same walk</strong>?</p>","75","","counterfactual","reach for something","","50","75","become hungry","","","","","","",""
"","","","","","html-slider-response","9","2.0.0","179225","D528F5800F3149D48D843E454BA78585","4468217f-9906-48ac-9e2f-c0c7cddfc967","63b64ef0-0a17-45d4-99b8-0e7682bd8206","","10820","<p style=""font-size: 25px;"">A person <strong>experienced pain</strong>, then they <strong>became hungry</strong>.</p> 
               <p style=""font-size: 25px;"">Suppose that they didn't <strong>experience pain</strong>. <br>Would they still have <strong>become hungry all the same</strong>?</p>","75","","similarity","think about something","remember something","50","75","","","","","","","",""
"","","","","","html-slider-response","10","2.0.0","183730","D528F5800F3149D48D843E454BA78585","4468217f-9906-48ac-9e2f-c0c7cddfc967","63b64ef0-0a17-45d4-99b8-0e7682bd8206","","4500","<p style=""font-size: 25px;"">A person <strong>became hungry</strong>, then they <strong>felt scared</strong>.</p> 
               <p style=""font-size: 25px;"">Suppose that they didn't <strong>become hungry</strong>. <br>Would they still have <strong>felt scared all the same</strong>?</p>","75","","similarity","hear something","see something","50","75","","","","","","","",""
"","","","","","html-slider-response","11","2.0.0","190651","D528F5800F3149D48D843E454BA78585","4468217f-9906-48ac-9e2f-c0c7cddfc967","63b64ef0-0a17-45d4-99b8-0e7682bd8206","","6916","<p style=""font-size: 25px;"">A person <strong>took a walk</strong>, then they <strong>became hungry</strong>.</p> 
               <p style=""font-size: 25px;"">Suppose that they didn't <strong>take a walk</strong>. <br>Would they still have <strong>become hungry all the same</strong>?</p>","26","","counterfactual","think about something","","50","26","take a walk","","","","","","",""
"","","","","","html-slider-response","12","2.0.0","197782","D528F5800F3149D48D843E454BA78585","4468217f-9906-48ac-9e2f-c0c7cddfc967","63b64ef0-0a17-45d4-99b8-0e7682bd8206","","7127","<p style=""font-size: 25px;"">A person <strong>took a walk</strong>, then they <strong>saw something</strong>.</p> 
               <p style=""font-size: 25px;"">Suppose that they didn't <strong>take a walk</strong>. <br>Would they still have <strong>seen the same thing</strong>?</p>","0","","counterfactual","jump up and down","","50","0","think about something","","","","","","",""
"","","","","","html-slider-response","13","2.0.0","203060","D528F5800F3149D48D843E454BA78585","4468217f-9906-48ac-9e2f-c0c7cddfc967","63b64ef0-0a17-45d4-99b8-0e7682bd8206","","5273","<p style=""font-size: 25px;"">A person <strong>felt scared</strong>, then they <strong>experienced pain</strong>.</p> 
               <p style=""font-size: 25px;"">Suppose that they didn't <strong>feel scared</strong>. <br>Would they still have <strong>experienced the same pain</strong>?</p>","26","","similarity","see something","hear something","50","26","","","","","","","",""
"","","","","","html-slider-response","14","2.0.0","207893","D528F5800F3149D48D843E454BA78585","4468217f-9906-48ac-9e2f-c0c7cddfc967","63b64ef0-0a17-45d4-99b8-0e7682bd8206","","4828","<p style=""font-size: 25px;"">A person <strong>took a walk</strong>, then they <strong>heard something</strong>.</p> 
               <p style=""font-size: 25px;"">Suppose that they didn't <strong>take a walk</strong>. <br>Would they still have <strong>heard the same thing</strong>?</p>","77","","counterfactual","experience pain","","50","77","kick something","","","","","","",""
"","","","","","html-slider-response","15","2.0.0","214873","D528F5800F3149D48D843E454BA78585","4468217f-9906-48ac-9e2f-c0c7cddfc967","63b64ef0-0a17-45d4-99b8-0e7682bd8206","","6976","<p style=""font-size: 25px;"">A person <strong>felt scared</strong>, then they <strong>got tired</strong>.</p> 
               <p style=""font-size: 25px;"">Suppose that they didn't <strong>feel scared</strong>. <br>Would they still have <strong>gotten tired all the same</strong>?</p>","31","","similarity","feel scared","become hungry","50","31","","","","","","","",""
"","","","","","html-slider-response","16","2.0.0","232251","D528F5800F3149D48D843E454BA78585","4468217f-9906-48ac-9e2f-c0c7cddfc967","63b64ef0-0a17-45d4-99b8-0e7682bd8206","","17373","<p style=""font-size: 25px;"">A person <strong>jumped up and down</strong>, then they <strong>got tired</strong>.</p> 
               <p style=""font-size: 25px;"">Suppose that they didn't <strong>jump up and down</strong>. <br>Would they still have <strong>gotten tired all the same</strong>?</p>","72","","counterfactual","feel scared","","50","72","see something","","","","","","",""
"","","","","","html-slider-response","17","2.0.0","242356","D528F5800F3149D48D843E454BA78585","4468217f-9906-48ac-9e2f-c0c7cddfc967","63b64ef0-0a17-45d4-99b8-0e7682bd8206","","10100","<p style=""font-size: 25px;"">A person <strong>remembered something</strong>, then they <strong>chose what to do</strong>.</p> 
               <p style=""font-size: 25px;"">Suppose that they didn't <strong>remember something</strong>. <br>Would they still have <strong>chosen to do the same thing</strong>?</p>","100","","similarity","get sick","get tired","50","100","","","","","","","",""
"","","","","","html-slider-response","18","2.0.0","250162","D528F5800F3149D48D843E454BA78585","4468217f-9906-48ac-9e2f-c0c7cddfc967","63b64ef0-0a17-45d4-99b8-0e7682bd8206","","7802","<p style=""font-size: 25px;"">A person <strong>thought about something</strong>, then they <strong>remembered something</strong>.</p> 
               <p style=""font-size: 25px;"">Suppose that they didn't <strong>think about something</strong>. <br>Would they still have <strong>remembered the same thing</strong>?</p>","0","","similarity","get tired","feel scared","50","0","","","","","","","",""
"","","","","","html-slider-response","19","2.0.0","257356","D528F5800F3149D48D843E454BA78585","4468217f-9906-48ac-9e2f-c0c7cddfc967","63b64ef0-0a17-45d4-99b8-0e7682bd8206","","7190","<p style=""font-size: 25px;"">A person <strong>jumped up and down</strong>, then they <strong>kicked something</strong>.</p> 
               <p style=""font-size: 25px;"">Suppose that they didn't <strong>jump up and down</strong>. <br>Would they still have <strong>kicked the same thing</strong>?</p>","76","","similarity","choose what to do","remember something","50","76","","","","","","","",""
"","","","","","html-slider-response","20","2.0.0","261693","D528F5800F3149D48D843E454BA78585","4468217f-9906-48ac-9e2f-c0c7cddfc967","63b64ef0-0a17-45d4-99b8-0e7682bd8206","","4333","<p style=""font-size: 25px;"">A person <strong>thought about something</strong>, then they <strong>jumped up and down</strong>.</p> 
               <p style=""font-size: 25px;"">Suppose that they didn't <strong>think about something</strong>. <br>Would they still have <strong>jumped up and down</strong>?</p>","76","","counterfactual","take a walk","","50","76","think about something","","","","","","",""
"","","","","","html-slider-response","21","2.0.0","270198","D528F5800F3149D48D843E454BA78585","4468217f-9906-48ac-9e2f-c0c7cddfc967","63b64ef0-0a17-45d4-99b8-0e7682bd8206","","8500","<p style=""font-size: 25px;"">A person <strong>kicked something</strong>, then they <strong>reached for something</strong>.</p> 
               <p style=""font-size: 25px;"">Suppose that they didn't <strong>kick something</strong>. <br>Would they still have <strong>reached for the same thing</strong>?</p>","74","","similarity","kick something","jump up and down","50","74","","","","","","","",""
"","","","","","html-slider-response","22","2.0.0","276704","D528F5800F3149D48D843E454BA78585","4468217f-9906-48ac-9e2f-c0c7cddfc967","63b64ef0-0a17-45d4-99b8-0e7682bd8206","","6501","<p style=""font-size: 25px;"">A person <strong>jumped up and down</strong>, then they <strong>took a walk</strong>.</p> 
               <p style=""font-size: 25px;"">Suppose that they didn't <strong>jump up and down</strong>. <br>Would they still have <strong>taken the same walk</strong>?</p>","77","","similarity","reach for something","kick something","50","77","","","","","","","",""
"","","","","","html-slider-response","23","2.0.0","281096","D528F5800F3149D48D843E454BA78585","4468217f-9906-48ac-9e2f-c0c7cddfc967","63b64ef0-0a17-45d4-99b8-0e7682bd8206","","4388","<p style=""font-size: 25px;"">A person <strong>sat down</strong>, then they <strong>jumped up and down</strong>.</p> 
               <p style=""font-size: 25px;"">Suppose that they didn't <strong>sit down</strong>. <br>Would they still have <strong>jumped up and down</strong>?</p>","75","","similarity","take a walk","jump up and down","50","75","","","","","","","",""
"","","","","","html-slider-response","24","2.0.0","301041","D528F5800F3149D48D843E454BA78585","4468217f-9906-48ac-9e2f-c0c7cddfc967","63b64ef0-0a17-45d4-99b8-0e7682bd8206","","19940","<p style=""font-size: 25px;"">A person <strong>saw something</strong>, then they <strong>felt scared</strong>.</p> 
               <p style=""font-size: 25px;"">Suppose that they didn't <strong>see something</strong>. <br>Would they still have <strong>felt scared all the same</strong>?</p>","26","","counterfactual","hear something","","50","26","take a walk","","","","","","",""
"","","","","","html-slider-response","25","2.0.0","309504","D528F5800F3149D48D843E454BA78585","4468217f-9906-48ac-9e2f-c0c7cddfc967","63b64ef0-0a17-45d4-99b8-0e7682bd8206","","8459","<p style=""font-size: 25px;"">A person <strong>jumped up and down</strong>, then they <strong>sat down</strong>.</p> 
               <p style=""font-size: 25px;"">Suppose that they didn't <strong>jump up and down</strong>. <br>Would they still have <strong>sat down at the same place</strong>?</p>","73","","similarity","sit down","jump up and down","50","73","","","","","","","",""
"","","","","","html-slider-response","26","2.0.0","316651","D528F5800F3149D48D843E454BA78585","4468217f-9906-48ac-9e2f-c0c7cddfc967","63b64ef0-0a17-45d4-99b8-0e7682bd8206","","7142","<p style=""font-size: 25px;"">A person <strong>heard something</strong>, then they <strong>saw something</strong>.</p> 
               <p style=""font-size: 25px;"">Suppose that they didn't <strong>hear something</strong>. <br>Would they still have <strong>seen the same thing</strong>?</p>","77","","similarity","jump up and down","sit down","50","77","","","","","","","",""
"","","","","","html-slider-response","27","2.0.0","326145","D528F5800F3149D48D843E454BA78585","4468217f-9906-48ac-9e2f-c0c7cddfc967","63b64ef0-0a17-45d4-99b8-0e7682bd8206","","9490","<p style=""font-size: 25px;"">A person <strong>remembered something</strong>, then they <strong>thought about something</strong>.</p> 
               <p style=""font-size: 25px;"">Suppose that they didn't <strong>remember something</strong>. <br>Would they still have <strong>thought the same thing</strong>?</p>","24","","similarity","remember something","think about something","50","24","","","","","","","",""
"","","","","","html-slider-response","28","2.0.0","332277","D528F5800F3149D48D843E454BA78585","4468217f-9906-48ac-9e2f-c0c7cddfc967","63b64ef0-0a17-45d4-99b8-0e7682bd8206","","6128","<p style=""font-size: 25px;"">A person <strong>experienced pain</strong>, then they <strong>sat down</strong>.</p> 
               <p style=""font-size: 25px;"">Suppose that they didn't <strong>experience pain</strong>. <br>Would they still have <strong>sat down at the same place</strong>?</p>","76","","counterfactual","sit down","","50","76","experience pain","","","","","","",""
"","","","","","html-slider-response","29","2.0.0","338109","D528F5800F3149D48D843E454BA78585","4468217f-9906-48ac-9e2f-c0c7cddfc967","63b64ef0-0a17-45d4-99b8-0e7682bd8206","","5828","<p style=""font-size: 25px;"">A person <strong>thought about something</strong>, then they <strong>kicked something</strong>.</p> 
               <p style=""font-size: 25px;"">Suppose that they didn't <strong>think about something</strong>. <br>Would they still have <strong>kicked the same thing</strong>?</p>","71","","counterfactual","choose what to do","","50","71","feel scared","","","","","","",""
"","","","","","html-slider-response","30","2.0.0","367800","D528F5800F3149D48D843E454BA78585","4468217f-9906-48ac-9e2f-c0c7cddfc967","63b64ef0-0a17-45d4-99b8-0e7682bd8206","","29687","<p style=""font-size: 25px;"">A person <strong>felt scared</strong>, then they <strong>chose what to do</strong>.</p> 
               <p style=""font-size: 25px;"">Suppose that they didn't <strong>feel scared</strong>. <br>Would they still have <strong>chosen to do the same thing</strong>?</p>","72","","counterfactual","get sick","","50","72","see something","","","","","","",""
"","","","","","html-slider-response","31","2.0.0","373688","D528F5800F3149D48D843E454BA78585","4468217f-9906-48ac-9e2f-c0c7cddfc967","63b64ef0-0a17-45d4-99b8-0e7682bd8206","","5885","<p style=""font-size: 25px;"">A person <strong>saw something</strong>, then they <strong>felt hungry</strong>.</p>
             <p style=""font-size: 25px;"">For this question, please select <strong>""definitely yes""</strong></p>","100","","attention_check_similarity","","","50","","","100","yes","","","","",""
"","","","","","html-slider-response","32","2.0.0","377357","D528F5800F3149D48D843E454BA78585","4468217f-9906-48ac-9e2f-c0c7cddfc967","63b64ef0-0a17-45d4-99b8-0e7682bd8206","","3665","<p style=""font-size: 25px;"">A person <strong>took a walk</strong>, then they <strong>remembered something</strong>.</p> 
               <p style=""font-size: 25px;"">Suppose that they didn't <strong>take a walk</strong>. <br>Would they still have <strong>remembered the same thing</strong>?</p>","74","","counterfactual","get tired","","50","74","jump up and down","","","","","","",""
"","","","","","html-slider-response","33","2.0.0","379608","D528F5800F3149D48D843E454BA78585","4468217f-9906-48ac-9e2f-c0c7cddfc967","63b64ef0-0a17-45d4-99b8-0e7682bd8206","","2246","<p style=""font-size: 25px;"">A person <strong>became hungry</strong>, then they <strong>reached for something</strong>.</p> 
               <p style=""font-size: 25px;"">Suppose that they didn't <strong>become hungry</strong>. <br>Would they still have <strong>reached for the same thing</strong>?</p>","73","","counterfactual","kick something","","50","73","think about something","","","","","","",""
"","","","","","html-slider-response","34","2.0.0","384968","D528F5800F3149D48D843E454BA78585","4468217f-9906-48ac-9e2f-c0c7cddfc967","63b64ef0-0a17-45d4-99b8-0e7682bd8206","","5356","<p style=""font-size: 25px;"">A person <strong>jumped up and down</strong>, then they <strong>got tired</strong>.</p>
             <p style=""font-size: 25px;"">For this question, please select <strong>""definitely not""</strong></p>","0","","attention_check_counterfactual","","","50","","","0","yes","","","","",""
"","","","","","instructions","35","2.0.0","387587","D528F5800F3149D48D843E454BA78585","4468217f-9906-48ac-9e2f-c0c7cddfc967","63b64ef0-0a17-45d4-99b8-0e7682bd8206","","2615","","","[{""page_index"":0,""viewing_time"":2615}]","","","","","","","","","","","","",""
"","","","","","survey-html-form","36","2.0.0","406987","D528F5800F3149D48D843E454BA78585","4468217f-9906-48ac-9e2f-c0c7cddfc967","63b64ef0-0a17-45d4-99b8-0e7682bd8206","demographics_survey","19392","","{""feedback"":""No comments"",""age"":""43"",""gender"":""Male"",""other_gender"":"""",""race"":""White"",""other_race"":"""",""ethnicity"":""Non-Hispanic""}","","","","","","","","","","No comments","43","Non-Hispanic","Male","White"
