"success","timeout","failed_images","failed_audio","failed_video","trial_type","trial_index","plugin_version","time_elapsed","mturk_participant_id","mturk_assignment_id","mturk_project_id","trial_id","rt","stimulus","response","view_history","condition","itemB","preceding_causal_itemA","preceding_similar_itemA","selected_choice","correct_response_attn","feedback","age","ethnicity","gender","race"
"true","false","[]","[]","[]","preload","0","2.1.0","7","BAD4D41447E6472A991A3358E9E617D9","","0199ee82-6072-77a3-8e83-ec647691b665","","","","","","","","","","","","","","","",""
"","","","","","html-button-response","1","2.1.0","16295","BAD4D41447E6472A991A3358E9E617D9","","0199ee82-6072-77a3-8e83-ec647691b665","consent","16287","<p><b>Consent Form</b></p> <div style=""text-align:left;background-color:lightblue; padding:2vw; max-width:80vw;""><p><b>Purpose:</b> This is a study demo; the purpose of the study is to understand how people think about the physical and social world.</p><p><b>Procedures:</b> In this study, you will watch videos, read sentences, or see pictures, and answer simple questions about them. This study should take approximately 4 minutes</p><p><b>Participation:</b> Participation in this study is voluntary. If you decide to join now, you can change your mind later. <p><b>Risks and benefits:</b> There are no risks associated with participating in this study. There are no direct benefits associated with participating in this study. </p><p><b>Use of data by study researchers:</b> The research team led by Shari Liu at JHU will have access to your answers. Researcher contact information:</b> This study is run by Dr. Shari Liu at JHU. If you have any questions or concerns about this study, or in the very unlikely event of a research-related injury, please contact sliu199@jhu.edu. <p> Do you consent to participate? </p>","0","","","","","","","","","","","",""
"","","","","","instructions","2","2.1.0","25705","BAD4D41447E6472A991A3358E9E617D9","","0199ee82-6072-77a3-8e83-ec647691b665","","9409","","","[{""page_index"":0,""viewing_time"":9409}]","","","","","","","","","","",""
"","","","","","html-button-response","3","2.1.0","39327","BAD4D41447E6472A991A3358E9E617D9","","0199ee82-6072-77a3-8e83-ec647691b665","","13621","<p style=""font-size: 25px;"">Suppose that you had magical powers, and wanted to give a creature the ability to <strong>think about something.</strong> <br>However, you ran out of that specific spell. <br>Which of these two spells would most likely accomplish your goal? <br>Giving the creature the ability to...</p>","0","","pilot","think about something","get sick","remember something","<p style=""font-size: 25px;""><strong>remember something</strong></p>","","","","","",""
"","","","","","html-button-response","4","2.1.0","46565","BAD4D41447E6472A991A3358E9E617D9","","0199ee82-6072-77a3-8e83-ec647691b665","","7237","<p style=""font-size: 25px;"">Suppose that you had magical powers, and wanted to give a creature the ability to <strong>reach for something.</strong> <br>However, you ran out of that specific spell. <br>Which of these two spells would most likely accomplish your goal? <br>Giving the creature the ability to...</p>","1","","pilot","reach for something","become hungry","kick something","<p style=""font-size: 25px;""><strong>kick something</strong></p>","","","","","",""
"","","","","","html-button-response","5","2.1.0","57945","BAD4D41447E6472A991A3358E9E617D9","","0199ee82-6072-77a3-8e83-ec647691b665","","11379","<p style=""font-size: 25px;"">Suppose that you had magical powers, and wanted to give a creature the ability to <strong>become hungry.</strong> <br>However, you ran out of that specific spell. <br>Which of these two spells would most likely accomplish your goal? <br>Giving the creature the ability to...</p>","1","","pilot","become hungry","take a walk","feel scared","<p style=""font-size: 25px;""><strong>feel scared</strong></p>","","","","","",""
"","","","","","html-button-response","6","2.1.0","63133","BAD4D41447E6472A991A3358E9E617D9","","0199ee82-6072-77a3-8e83-ec647691b665","","5187","<p style=""font-size: 25px;"">Suppose that you had magical powers, and wanted to give a creature the ability to <strong>feel scared.</strong> <br>However, you ran out of that specific spell. <br>Which of these two spells would most likely accomplish your goal? <br>Giving the creature the ability to...</p>","0","","pilot","feel scared","see something","get tired","<p style=""font-size: 25px;""><strong>get tired</strong></p>","","","","","",""
"","","","","","html-button-response","7","2.1.0","70257","BAD4D41447E6472A991A3358E9E617D9","","0199ee82-6072-77a3-8e83-ec647691b665","","7123","<p style=""font-size: 25px;"">Suppose that you had magical powers, and wanted to give a creature the ability to <strong>sit down.</strong> <br>However, you ran out of that specific spell. <br>Which of these two spells would most likely accomplish your goal? <br>Giving the creature the ability to...</p>","0","","pilot","sit down","experience pain","jump up and down","<p style=""font-size: 25px;""><strong>jump up and down</strong></p>","","","","","",""
"","","","","","html-button-response","8","2.1.0","73971","BAD4D41447E6472A991A3358E9E617D9","","0199ee82-6072-77a3-8e83-ec647691b665","","3713","<p style=""font-size: 25px;"">Suppose that you had magical powers, and wanted to give a creature the ability to <strong>see something.</strong> <br>However, you ran out of that specific spell. <br>Which of these two spells would most likely accomplish your goal? <br>Giving the creature the ability to...</p>","1","","pilot","see something","take a walk","hear something","<p style=""font-size: 25px;""><strong>hear something</strong></p>","","","","","",""
"","","","","","html-button-response","9","2.1.0","77939","BAD4D41447E6472A991A3358E9E617D9","","0199ee82-6072-77a3-8e83-ec647691b665","","3967","<p style=""font-size: 25px;"">Suppose that you had magical powers, and wanted to give a creature the ability to <strong>get sick.</strong> <br>However, you ran out of that specific spell. <br>Which of these two spells would most likely accomplish your goal? <br>Giving the creature the ability to...</p>","1","","pilot","get sick","see something","get tired","<p style=""font-size: 25px;""><strong>get tired</strong></p>","","","","","",""
"","","","","","html-button-response","10","2.1.0","87829","BAD4D41447E6472A991A3358E9E617D9","","0199ee82-6072-77a3-8e83-ec647691b665","","9889","<p style=""font-size: 25px;"">Suppose that you had magical powers, and wanted to give a creature the ability to <strong>choose what to do.</strong> <br>However, you ran out of that specific spell. <br>Which of these two spells would most likely accomplish your goal? <br>Giving the creature the ability to...</p>","1","","pilot","choose what to do","experience pain","remember something","<p style=""font-size: 25px;""><strong>remember something</strong></p>","","","","","",""
"","","","","","html-button-response","11","2.1.0","94725","BAD4D41447E6472A991A3358E9E617D9","","0199ee82-6072-77a3-8e83-ec647691b665","","6895","<p style=""font-size: 25px;"">Suppose that you had magical powers, and wanted to give a creature the ability to <strong>kick something.</strong> <br>However, you ran out of that specific spell. <br>Which of these two spells would most likely accomplish your goal? <br>Giving the creature the ability to...</p>","0","","pilot","kick something","think about something","sit down","<p style=""font-size: 25px;""><strong>think about something</strong></p>","","","","","",""
"","","","","","html-button-response","12","2.1.0","102055","BAD4D41447E6472A991A3358E9E617D9","","0199ee82-6072-77a3-8e83-ec647691b665","","7329","<p style=""font-size: 25px;"">Suppose that you had magical powers, and wanted to give a creature the ability to <strong>hear something.</strong> <br>However, you ran out of that specific spell. <br>Which of these two spells would most likely accomplish your goal? <br>Giving the creature the ability to...</p>","1","","pilot","hear something","take a walk","see something","<p style=""font-size: 25px;""><strong>see something</strong></p>","","","","","",""
"","","","","","html-button-response","13","2.1.0","108267","BAD4D41447E6472A991A3358E9E617D9","","0199ee82-6072-77a3-8e83-ec647691b665","","6211","<p style=""font-size: 25px;"">For this question, ignore the previous instructions. <br>Instead, please select <strong>""choose what to do""</strong></p>","0","","attention_check","","","","choose what to do","choose what to do","","","","",""
"","","","","","html-button-response","14","2.1.0","114419","BAD4D41447E6472A991A3358E9E617D9","","0199ee82-6072-77a3-8e83-ec647691b665","","6151","<p style=""font-size: 25px;"">Suppose that you had magical powers, and wanted to give a creature the ability to <strong>take a walk.</strong> <br>However, you ran out of that specific spell. <br>Which of these two spells would most likely accomplish your goal? <br>Giving the creature the ability to...</p>","0","","pilot","take a walk","think about something","jump up and down","<p style=""font-size: 25px;""><strong>jump up and down</strong></p>","","","","","",""
"","","","","","html-button-response","15","2.1.0","118261","BAD4D41447E6472A991A3358E9E617D9","","0199ee82-6072-77a3-8e83-ec647691b665","","3841","<p style=""font-size: 25px;"">Suppose that you had magical powers, and wanted to give a creature the ability to <strong>get tired.</strong> <br>However, you ran out of that specific spell. <br>Which of these two spells would most likely accomplish your goal? <br>Giving the creature the ability to...</p>","0","","pilot","get tired","jump up and down","feel scared","<p style=""font-size: 25px;""><strong>feel scared</strong></p>","","","","","",""
"","","","","","html-button-response","16","2.1.0","123241","BAD4D41447E6472A991A3358E9E617D9","","0199ee82-6072-77a3-8e83-ec647691b665","","4979","<p style=""font-size: 25px;"">Suppose that you had magical powers, and wanted to give a creature the ability to <strong>experience pain.</strong> <br>However, you ran out of that specific spell. <br>Which of these two spells would most likely accomplish your goal? <br>Giving the creature the ability to...</p>","0","","pilot","experience pain","kick something","get tired","<p style=""font-size: 25px;""><strong>get tired</strong></p>","","","","","",""
"","","","","","html-button-response","17","2.1.0","127413","BAD4D41447E6472A991A3358E9E617D9","","0199ee82-6072-77a3-8e83-ec647691b665","","4171","<p style=""font-size: 25px;"">Suppose that you had magical powers, and wanted to give a creature the ability to <strong>remember something.</strong> <br>However, you ran out of that specific spell. <br>Which of these two spells would most likely accomplish your goal? <br>Giving the creature the ability to...</p>","0","","pilot","remember something","take a walk","think about something","<p style=""font-size: 25px;""><strong>think about something</strong></p>","","","","","",""
"","","","","","html-button-response","18","2.1.0","131407","BAD4D41447E6472A991A3358E9E617D9","","0199ee82-6072-77a3-8e83-ec647691b665","","3993","<p style=""font-size: 25px;"">Suppose that you had magical powers, and wanted to give a creature the ability to <strong>jump up and down.</strong> <br>However, you ran out of that specific spell. <br>Which of these two spells would most likely accomplish your goal? <br>Giving the creature the ability to...</p>","0","","pilot","jump up and down","see something","sit down","<p style=""font-size: 25px;""><strong>see something</strong></p>","","","","","",""
"","","","","","instructions","19","2.1.0","145625","BAD4D41447E6472A991A3358E9E617D9","","0199ee82-6072-77a3-8e83-ec647691b665","","14217","","","[{""page_index"":0,""viewing_time"":14217}]","","","","","","","","","","",""
"","","","","","survey-html-form","20","2.1.0","239296","BAD4D41447E6472A991A3358E9E617D9","","0199ee82-6072-77a3-8e83-ec647691b665","demographics_survey","93670","","{""feedback"":""I tried to respond with another spell that I felt would either compliment what was originally being thought to implement or one that I felt would give a variation of a different ability. I really hope you find my answers useful I enjoyed the experiment. "",""age"":""47"",""gender"":""Male"",""other_gender"":"""",""race"":""White"",""other_race"":"""",""ethnicity"":""Non-Hispanic""}","","","","","","","","I tried to respond with another spell that I felt would either compliment what was originally being thought to implement or one that I felt would give a variation of a different ability. I really hope you find my answers useful I enjoyed the experiment. ","47","Non-Hispanic","Male","White"
