"success","timeout","failed_images","failed_audio","failed_video","trial_type","trial_index","plugin_version","time_elapsed","mturk_participant_id","mturk_assignment_id","mturk_project_id","trial_id","rt","stimulus","response","view_history","condition","itemB","preceding_causal_itemA","preceding_similar_itemA","selected_choice","correct_response_attn","feedback","age","ethnicity","gender","race"
"true","false","[]","[]","[]","preload","0","2.1.0","5","370C0B06651E4C23AC8CD94C86B91E85","","0199f288-ace2-7887-b56b-48984c85d3d9","","","","","","","","","","","","","","","",""
"","","","","","html-button-response","1","2.1.0","11473","370C0B06651E4C23AC8CD94C86B91E85","","0199f288-ace2-7887-b56b-48984c85d3d9","consent","11467","<p><b>Consent Form</b></p> <div style=""text-align:left;background-color:lightblue; padding:2vw; max-width:80vw;""><p><b>Purpose:</b> This is a study demo; the purpose of the study is to understand how people think about the physical and social world.</p><p><b>Procedures:</b> In this study, you will watch videos, read sentences, or see pictures, and answer simple questions about them. This study should take approximately 4 minutes</p><p><b>Participation:</b> Participation in this study is voluntary. If you decide to join now, you can change your mind later. <p><b>Risks and benefits:</b> There are no risks associated with participating in this study. There are no direct benefits associated with participating in this study. </p><p><b>Use of data by study researchers:</b> The research team led by Shari Liu at JHU will have access to your answers. Researcher contact information:</b> This study is run by Dr. Shari Liu at JHU. If you have any questions or concerns about this study, or in the very unlikely event of a research-related injury, please contact sliu199@jhu.edu. <p> Do you consent to participate? </p>","0","","","","","","","","","","","",""
"","","","","","instructions","2","2.1.0","29094","370C0B06651E4C23AC8CD94C86B91E85","","0199f288-ace2-7887-b56b-48984c85d3d9","","17620","","","[{""page_index"":0,""viewing_time"":17620}]","","","","","","","","","","",""
"","","","","","html-button-response","3","2.1.0","47203","370C0B06651E4C23AC8CD94C86B91E85","","0199f288-ace2-7887-b56b-48984c85d3d9","","18107","<p style=""font-size: 25px;"">You are working on a new creature which currently has no capabilities. <br>Using your magical powers, you cast the <em>Ulana</em> spell. <br>The <em>Ulana</em> spell gives the creature the capacity to <strong>reach for something</strong>, and one other capacity. <br>Which do you think is this other capacity? </p>","0","","named_spell","reach for something","become hungry","kick something","<p style=""font-size: 25px;""><strong>kick something</strong></p>","","","","","",""
"","","","","","html-button-response","4","2.1.0","52023","370C0B06651E4C23AC8CD94C86B91E85","","0199f288-ace2-7887-b56b-48984c85d3d9","","4819","<p style=""font-size: 25px;"">For this question, ignore the previous instructions. <br>Instead, please select <strong>""choose what to do""</strong></p>","0","","attention_check","","","","choose what to do","choose what to do","","","","",""
"","","","","","html-button-response","5","2.1.0","60656","370C0B06651E4C23AC8CD94C86B91E85","","0199f288-ace2-7887-b56b-48984c85d3d9","","8633","<p style=""font-size: 25px;"">You are working on a new creature which currently has no capabilities. <br>Using your magical powers, you cast the <em>Ulana</em> spell. <br>The <em>Ulana</em> spell gives the creature the capacity to <strong>become hungry</strong>, and one other capacity. <br>Which do you think is this other capacity? </p>","1","","named_spell","become hungry","take a walk","feel scared","<p style=""font-size: 25px;""><strong>feel scared</strong></p>","","","","","",""
"","","","","","html-button-response","6","2.1.0","65050","370C0B06651E4C23AC8CD94C86B91E85","","0199f288-ace2-7887-b56b-48984c85d3d9","","4393","<p style=""font-size: 25px;"">You are working on a new creature which currently has no capabilities. <br>Using your magical powers, you cast the <em>Ulana</em> spell. <br>The <em>Ulana</em> spell gives the creature the capacity to <strong>take a walk</strong>, and one other capacity. <br>Which do you think is this other capacity? </p>","0","","named_spell","take a walk","think about something","jump up and down","<p style=""font-size: 25px;""><strong>jump up and down</strong></p>","","","","","",""
"","","","","","html-button-response","7","2.1.0","69412","370C0B06651E4C23AC8CD94C86B91E85","","0199f288-ace2-7887-b56b-48984c85d3d9","","4361","<p style=""font-size: 25px;"">You are working on a new creature which currently has no capabilities. <br>Using your magical powers, you cast the <em>Ulana</em> spell. <br>The <em>Ulana</em> spell gives the creature the capacity to <strong>think about something</strong>, and one other capacity. <br>Which do you think is this other capacity? </p>","0","","named_spell","think about something","get sick","remember something","<p style=""font-size: 25px;""><strong>remember something</strong></p>","","","","","",""
"","","","","","html-button-response","8","2.1.0","73165","370C0B06651E4C23AC8CD94C86B91E85","","0199f288-ace2-7887-b56b-48984c85d3d9","","3752","<p style=""font-size: 25px;"">You are working on a new creature which currently has no capabilities. <br>Using your magical powers, you cast the <em>Ulana</em> spell. <br>The <em>Ulana</em> spell gives the creature the capacity to <strong>kick something</strong>, and one other capacity. <br>Which do you think is this other capacity? </p>","0","","named_spell","kick something","think about something","sit down","<p style=""font-size: 25px;""><strong>sit down</strong></p>","","","","","",""
"","","","","","html-button-response","9","2.1.0","75942","370C0B06651E4C23AC8CD94C86B91E85","","0199f288-ace2-7887-b56b-48984c85d3d9","","2776","<p style=""font-size: 25px;"">You are working on a new creature which currently has no capabilities. <br>Using your magical powers, you cast the <em>Ulana</em> spell. <br>The <em>Ulana</em> spell gives the creature the capacity to <strong>see something</strong>, and one other capacity. <br>Which do you think is this other capacity? </p>","1","","named_spell","see something","take a walk","hear something","<p style=""font-size: 25px;""><strong>hear something</strong></p>","","","","","",""
"","","","","","html-button-response","10","2.1.0","79874","370C0B06651E4C23AC8CD94C86B91E85","","0199f288-ace2-7887-b56b-48984c85d3d9","","3931","<p style=""font-size: 25px;"">You are working on a new creature which currently has no capabilities. <br>Using your magical powers, you cast the <em>Ulana</em> spell. <br>The <em>Ulana</em> spell gives the creature the capacity to <strong>get sick</strong>, and one other capacity. <br>Which do you think is this other capacity? </p>","1","","named_spell","get sick","see something","get tired","<p style=""font-size: 25px;""><strong>get tired</strong></p>","","","","","",""
"","","","","","html-button-response","11","2.1.0","83037","370C0B06651E4C23AC8CD94C86B91E85","","0199f288-ace2-7887-b56b-48984c85d3d9","","3162","<p style=""font-size: 25px;"">You are working on a new creature which currently has no capabilities. <br>Using your magical powers, you cast the <em>Ulana</em> spell. <br>The <em>Ulana</em> spell gives the creature the capacity to <strong>feel scared</strong>, and one other capacity. <br>Which do you think is this other capacity? </p>","1","","named_spell","feel scared","see something","get tired","<p style=""font-size: 25px;""><strong>get tired</strong></p>","","","","","",""
"","","","","","html-button-response","12","2.1.0","90798","370C0B06651E4C23AC8CD94C86B91E85","","0199f288-ace2-7887-b56b-48984c85d3d9","","7762","<p style=""font-size: 25px;"">You are working on a new creature which currently has no capabilities. <br>Using your magical powers, you cast the <em>Ulana</em> spell. <br>The <em>Ulana</em> spell gives the creature the capacity to <strong>choose what to do</strong>, and one other capacity. <br>Which do you think is this other capacity? </p>","0","","named_spell","choose what to do","experience pain","remember something","<p style=""font-size: 25px;""><strong>remember something</strong></p>","","","","","",""
"","","","","","html-button-response","13","2.1.0","95588","370C0B06651E4C23AC8CD94C86B91E85","","0199f288-ace2-7887-b56b-48984c85d3d9","","4788","<p style=""font-size: 25px;"">You are working on a new creature which currently has no capabilities. <br>Using your magical powers, you cast the <em>Ulana</em> spell. <br>The <em>Ulana</em> spell gives the creature the capacity to <strong>experience pain</strong>, and one other capacity. <br>Which do you think is this other capacity? </p>","1","","named_spell","experience pain","kick something","get tired","<p style=""font-size: 25px;""><strong>kick something</strong></p>","","","","","",""
"","","","","","html-button-response","14","2.1.0","98767","370C0B06651E4C23AC8CD94C86B91E85","","0199f288-ace2-7887-b56b-48984c85d3d9","","3177","<p style=""font-size: 25px;"">You are working on a new creature which currently has no capabilities. <br>Using your magical powers, you cast the <em>Ulana</em> spell. <br>The <em>Ulana</em> spell gives the creature the capacity to <strong>jump up and down</strong>, and one other capacity. <br>Which do you think is this other capacity? </p>","0","","named_spell","jump up and down","see something","sit down","<p style=""font-size: 25px;""><strong>sit down</strong></p>","","","","","",""
"","","","","","html-button-response","15","2.1.0","100764","370C0B06651E4C23AC8CD94C86B91E85","","0199f288-ace2-7887-b56b-48984c85d3d9","","1997","<p style=""font-size: 25px;"">You are working on a new creature which currently has no capabilities. <br>Using your magical powers, you cast the <em>Ulana</em> spell. <br>The <em>Ulana</em> spell gives the creature the capacity to <strong>hear something</strong>, and one other capacity. <br>Which do you think is this other capacity? </p>","1","","named_spell","hear something","take a walk","see something","<p style=""font-size: 25px;""><strong>see something</strong></p>","","","","","",""
"","","","","","html-button-response","16","2.1.0","104116","370C0B06651E4C23AC8CD94C86B91E85","","0199f288-ace2-7887-b56b-48984c85d3d9","","3352","<p style=""font-size: 25px;"">You are working on a new creature which currently has no capabilities. <br>Using your magical powers, you cast the <em>Ulana</em> spell. <br>The <em>Ulana</em> spell gives the creature the capacity to <strong>remember something</strong>, and one other capacity. <br>Which do you think is this other capacity? </p>","0","","named_spell","remember something","take a walk","think about something","<p style=""font-size: 25px;""><strong>think about something</strong></p>","","","","","",""
"","","","","","html-button-response","17","2.1.0","106013","370C0B06651E4C23AC8CD94C86B91E85","","0199f288-ace2-7887-b56b-48984c85d3d9","","1896","<p style=""font-size: 25px;"">You are working on a new creature which currently has no capabilities. <br>Using your magical powers, you cast the <em>Ulana</em> spell. <br>The <em>Ulana</em> spell gives the creature the capacity to <strong>get tired</strong>, and one other capacity. <br>Which do you think is this other capacity? </p>","0","","named_spell","get tired","jump up and down","feel scared","<p style=""font-size: 25px;""><strong>feel scared</strong></p>","","","","","",""
"","","","","","html-button-response","18","2.1.0","108442","370C0B06651E4C23AC8CD94C86B91E85","","0199f288-ace2-7887-b56b-48984c85d3d9","","2430","<p style=""font-size: 25px;"">You are working on a new creature which currently has no capabilities. <br>Using your magical powers, you cast the <em>Ulana</em> spell. <br>The <em>Ulana</em> spell gives the creature the capacity to <strong>sit down</strong>, and one other capacity. <br>Which do you think is this other capacity? </p>","0","","named_spell","sit down","experience pain","jump up and down","<p style=""font-size: 25px;""><strong>jump up and down</strong></p>","","","","","",""
"","","","","","instructions","19","2.1.0","122348","370C0B06651E4C23AC8CD94C86B91E85","","0199f288-ace2-7887-b56b-48984c85d3d9","","13905","","","[{""page_index"":0,""viewing_time"":13905}]","","","","","","","","","","",""
"","","","","","survey-html-form","20","2.1.0","143808","370C0B06651E4C23AC8CD94C86B91E85","","0199f288-ace2-7887-b56b-48984c85d3d9","demographics_survey","21458","","{""feedback"":""I tended to focus on similar abilities."",""age"":""31"",""gender"":""Male"",""other_gender"":"""",""race"":""White"",""other_race"":"""",""ethnicity"":""Non-Hispanic""}","","","","","","","","I tended to focus on similar abilities.","31","Non-Hispanic","Male","White"
