"success","timeout","failed_images","failed_audio","failed_video","trial_type","trial_index","plugin_version","time_elapsed","mturk_participant_id","mturk_assignment_id","mturk_project_id","trial_id","rt","stimulus","response","view_history","condition","itemB","preceding_causal_itemA","preceding_similar_itemA","selected_choice","correct_response_attn","feedback","age","ethnicity","gender","race"
"true","false","[]","[]","[]","preload","0","2.1.0","6","BF9CB3BA1FA042CAB85F0961DA4ADE5C","","0199f327-5758-76ec-86b2-e20a5114ed1c","","","","","","","","","","","","","","","",""
"","","","","","html-button-response","1","2.1.0","10689","BF9CB3BA1FA042CAB85F0961DA4ADE5C","","0199f327-5758-76ec-86b2-e20a5114ed1c","consent","10681","<p><b>Consent Form</b></p> <div style=""text-align:left;background-color:lightblue; padding:2vw; max-width:80vw;""><p><b>Purpose:</b> This is a study demo; the purpose of the study is to understand how people think about the physical and social world.</p><p><b>Procedures:</b> In this study, you will watch videos, read sentences, or see pictures, and answer simple questions about them. This study should take approximately 4 minutes</p><p><b>Participation:</b> Participation in this study is voluntary. If you decide to join now, you can change your mind later. <p><b>Risks and benefits:</b> There are no risks associated with participating in this study. There are no direct benefits associated with participating in this study. </p><p><b>Use of data by study researchers:</b> The research team led by Shari Liu at JHU will have access to your answers. Researcher contact information:</b> This study is run by Dr. Shari Liu at JHU. If you have any questions or concerns about this study, or in the very unlikely event of a research-related injury, please contact sliu199@jhu.edu. <p> Do you consent to participate? </p>","0","","","","","","","","","","","",""
"","","","","","instructions","2","2.1.0","19376","BF9CB3BA1FA042CAB85F0961DA4ADE5C","","0199f327-5758-76ec-86b2-e20a5114ed1c","","8687","","","[{""page_index"":0,""viewing_time"":8687}]","","","","","","","","","","",""
"","","","","","html-button-response","3","2.1.0","46572","BF9CB3BA1FA042CAB85F0961DA4ADE5C","","0199f327-5758-76ec-86b2-e20a5114ed1c","","27194","<p style=""font-size: 25px;"">You are working on a new creature which currently has no capabilities. <br>Using your magical powers, your goal is to give this creature the capacity to <strong>remember something.</strong> <br>However, you ran out of that specific spell.<br>Which of these two spells would most likely accomplish your goal? <br>The spell that grants the capacity to...</p>","1","","standard","remember something","take a walk","think about something","<p style=""font-size: 25px;""><strong>think about something</strong></p>","","","","","",""
"","","","","","html-button-response","4","2.1.0","70203","BF9CB3BA1FA042CAB85F0961DA4ADE5C","","0199f327-5758-76ec-86b2-e20a5114ed1c","","23631","<p style=""font-size: 25px;"">You are working on a new creature which currently has no capabilities. <br>Using your magical powers, your goal is to give this creature the capacity to <strong>choose what to do.</strong> <br>However, you ran out of that specific spell.<br>Which of these two spells would most likely accomplish your goal? <br>The spell that grants the capacity to...</p>","0","","standard","choose what to do","experience pain","remember something","<p style=""font-size: 25px;""><strong>remember something</strong></p>","","","","","",""
"","","","","","html-button-response","5","2.1.0","86125","BF9CB3BA1FA042CAB85F0961DA4ADE5C","","0199f327-5758-76ec-86b2-e20a5114ed1c","","15920","<p style=""font-size: 25px;"">You are working on a new creature which currently has no capabilities. <br>Using your magical powers, your goal is to give this creature the capacity to <strong>become hungry.</strong> <br>However, you ran out of that specific spell.<br>Which of these two spells would most likely accomplish your goal? <br>The spell that grants the capacity to...</p>","1","","standard","become hungry","take a walk","feel scared","<p style=""font-size: 25px;""><strong>feel scared</strong></p>","","","","","",""
"","","","","","html-button-response","6","2.1.0","92937","BF9CB3BA1FA042CAB85F0961DA4ADE5C","","0199f327-5758-76ec-86b2-e20a5114ed1c","","6811","<p style=""font-size: 25px;"">For this question, ignore the previous instructions. <br>Instead, please select <strong>""choose what to do""</strong></p>","0","","attention_check","","","","choose what to do","choose what to do","","","","",""
"","","","","","html-button-response","7","2.1.0","105133","BF9CB3BA1FA042CAB85F0961DA4ADE5C","","0199f327-5758-76ec-86b2-e20a5114ed1c","","12195","<p style=""font-size: 25px;"">You are working on a new creature which currently has no capabilities. <br>Using your magical powers, your goal is to give this creature the capacity to <strong>think about something.</strong> <br>However, you ran out of that specific spell.<br>Which of these two spells would most likely accomplish your goal? <br>The spell that grants the capacity to...</p>","0","","standard","think about something","get sick","remember something","<p style=""font-size: 25px;""><strong>remember something</strong></p>","","","","","",""
"","","","","","html-button-response","8","2.1.0","114519","BF9CB3BA1FA042CAB85F0961DA4ADE5C","","0199f327-5758-76ec-86b2-e20a5114ed1c","","9385","<p style=""font-size: 25px;"">You are working on a new creature which currently has no capabilities. <br>Using your magical powers, your goal is to give this creature the capacity to <strong>get sick.</strong> <br>However, you ran out of that specific spell.<br>Which of these two spells would most likely accomplish your goal? <br>The spell that grants the capacity to...</p>","1","","standard","get sick","see something","get tired","<p style=""font-size: 25px;""><strong>get tired</strong></p>","","","","","",""
"","","","","","html-button-response","9","2.1.0","129389","BF9CB3BA1FA042CAB85F0961DA4ADE5C","","0199f327-5758-76ec-86b2-e20a5114ed1c","","14869","<p style=""font-size: 25px;"">You are working on a new creature which currently has no capabilities. <br>Using your magical powers, your goal is to give this creature the capacity to <strong>jump up and down.</strong> <br>However, you ran out of that specific spell.<br>Which of these two spells would most likely accomplish your goal? <br>The spell that grants the capacity to...</p>","1","","standard","jump up and down","see something","sit down","<p style=""font-size: 25px;""><strong>sit down</strong></p>","","","","","",""
"","","","","","html-button-response","10","2.1.0","140217","BF9CB3BA1FA042CAB85F0961DA4ADE5C","","0199f327-5758-76ec-86b2-e20a5114ed1c","","10827","<p style=""font-size: 25px;"">You are working on a new creature which currently has no capabilities. <br>Using your magical powers, your goal is to give this creature the capacity to <strong>take a walk.</strong> <br>However, you ran out of that specific spell.<br>Which of these two spells would most likely accomplish your goal? <br>The spell that grants the capacity to...</p>","0","","standard","take a walk","think about something","jump up and down","<p style=""font-size: 25px;""><strong>jump up and down</strong></p>","","","","","",""
"","","","","","html-button-response","11","2.1.0","152983","BF9CB3BA1FA042CAB85F0961DA4ADE5C","","0199f327-5758-76ec-86b2-e20a5114ed1c","","12765","<p style=""font-size: 25px;"">You are working on a new creature which currently has no capabilities. <br>Using your magical powers, your goal is to give this creature the capacity to <strong>sit down.</strong> <br>However, you ran out of that specific spell.<br>Which of these two spells would most likely accomplish your goal? <br>The spell that grants the capacity to...</p>","0","","standard","sit down","experience pain","jump up and down","<p style=""font-size: 25px;""><strong>jump up and down</strong></p>","","","","","",""
"","","","","","html-button-response","12","2.1.0","180656","BF9CB3BA1FA042CAB85F0961DA4ADE5C","","0199f327-5758-76ec-86b2-e20a5114ed1c","","27673","<p style=""font-size: 25px;"">You are working on a new creature which currently has no capabilities. <br>Using your magical powers, your goal is to give this creature the capacity to <strong>see something.</strong> <br>However, you ran out of that specific spell.<br>Which of these two spells would most likely accomplish your goal? <br>The spell that grants the capacity to...</p>","1","","standard","see something","take a walk","hear something","<p style=""font-size: 25px;""><strong>hear something</strong></p>","","","","","",""
"","","","","","html-button-response","13","2.1.0","187338","BF9CB3BA1FA042CAB85F0961DA4ADE5C","","0199f327-5758-76ec-86b2-e20a5114ed1c","","6681","<p style=""font-size: 25px;"">You are working on a new creature which currently has no capabilities. <br>Using your magical powers, your goal is to give this creature the capacity to <strong>experience pain.</strong> <br>However, you ran out of that specific spell.<br>Which of these two spells would most likely accomplish your goal? <br>The spell that grants the capacity to...</p>","0","","standard","experience pain","kick something","get tired","<p style=""font-size: 25px;""><strong>kick something</strong></p>","","","","","",""
"","","","","","html-button-response","14","2.1.0","200178","BF9CB3BA1FA042CAB85F0961DA4ADE5C","","0199f327-5758-76ec-86b2-e20a5114ed1c","","12839","<p style=""font-size: 25px;"">You are working on a new creature which currently has no capabilities. <br>Using your magical powers, your goal is to give this creature the capacity to <strong>feel scared.</strong> <br>However, you ran out of that specific spell.<br>Which of these two spells would most likely accomplish your goal? <br>The spell that grants the capacity to...</p>","1","","standard","feel scared","see something","get tired","<p style=""font-size: 25px;""><strong>see something</strong></p>","","","","","",""
"","","","","","html-button-response","15","2.1.0","220432","BF9CB3BA1FA042CAB85F0961DA4ADE5C","","0199f327-5758-76ec-86b2-e20a5114ed1c","","20253","<p style=""font-size: 25px;"">You are working on a new creature which currently has no capabilities. <br>Using your magical powers, your goal is to give this creature the capacity to <strong>kick something.</strong> <br>However, you ran out of that specific spell.<br>Which of these two spells would most likely accomplish your goal? <br>The spell that grants the capacity to...</p>","0","","standard","kick something","think about something","sit down","<p style=""font-size: 25px;""><strong>think about something</strong></p>","","","","","",""
"","","","","","html-button-response","16","2.1.0","231162","BF9CB3BA1FA042CAB85F0961DA4ADE5C","","0199f327-5758-76ec-86b2-e20a5114ed1c","","10729","<p style=""font-size: 25px;"">You are working on a new creature which currently has no capabilities. <br>Using your magical powers, your goal is to give this creature the capacity to <strong>get tired.</strong> <br>However, you ran out of that specific spell.<br>Which of these two spells would most likely accomplish your goal? <br>The spell that grants the capacity to...</p>","1","","standard","get tired","jump up and down","feel scared","<p style=""font-size: 25px;""><strong>jump up and down</strong></p>","","","","","",""
"","","","","","html-button-response","17","2.1.0","240193","BF9CB3BA1FA042CAB85F0961DA4ADE5C","","0199f327-5758-76ec-86b2-e20a5114ed1c","","9031","<p style=""font-size: 25px;"">You are working on a new creature which currently has no capabilities. <br>Using your magical powers, your goal is to give this creature the capacity to <strong>hear something.</strong> <br>However, you ran out of that specific spell.<br>Which of these two spells would most likely accomplish your goal? <br>The spell that grants the capacity to...</p>","1","","standard","hear something","take a walk","see something","<p style=""font-size: 25px;""><strong>see something</strong></p>","","","","","",""
"","","","","","html-button-response","18","2.1.0","258223","BF9CB3BA1FA042CAB85F0961DA4ADE5C","","0199f327-5758-76ec-86b2-e20a5114ed1c","","18029","<p style=""font-size: 25px;"">You are working on a new creature which currently has no capabilities. <br>Using your magical powers, your goal is to give this creature the capacity to <strong>reach for something.</strong> <br>However, you ran out of that specific spell.<br>Which of these two spells would most likely accomplish your goal? <br>The spell that grants the capacity to...</p>","1","","standard","reach for something","become hungry","kick something","<p style=""font-size: 25px;""><strong>become hungry</strong></p>","","","","","",""
"","","","","","instructions","19","2.1.0","274297","BF9CB3BA1FA042CAB85F0961DA4ADE5C","","0199f327-5758-76ec-86b2-e20a5114ed1c","","16073","","","[{""page_index"":0,""viewing_time"":16073}]","","","","","","","","","","",""
"","","","","","survey-html-form","20","2.1.0","350792","BF9CB3BA1FA042CAB85F0961DA4ADE5C","","0199f327-5758-76ec-86b2-e20a5114ed1c","demographics_survey","76493","","{""feedback"":""I chose the items that seemed to be the most related to the power that I could no longer give."",""age"":""73"",""gender"":""Male"",""other_gender"":"""",""race"":""White"",""other_race"":"""",""ethnicity"":""Non-Hispanic""}","","","","","","","","I chose the items that seemed to be the most related to the power that I could no longer give.","73","Non-Hispanic","Male","White"
