"success","timeout","failed_images","failed_audio","failed_video","trial_type","trial_index","plugin_version","time_elapsed","mturk_participant_id","mturk_assignment_id","mturk_project_id","trial_id","rt","stimulus","response","view_history","condition","itemB","preceding_causal_itemA","preceding_similar_itemA","selected_choice","correct_response_attn","feedback","age","ethnicity","gender","race"
"true","false","[]","[]","[]","preload","0","2.1.0","3","3FA5CA2830F743A284852552BAF32E47","","019a08eb-2e9e-73d9-8903-936d45d7eccc","","","","","","","","","","","","","","","",""
"","","","","","html-button-response","1","2.1.0","5166","3FA5CA2830F743A284852552BAF32E47","","019a08eb-2e9e-73d9-8903-936d45d7eccc","consent","5162","<p><b>Consent Form</b></p> <div style=""text-align:left;background-color:lightblue; padding:2vw; max-width:80vw;""><p><b>Purpose:</b> This is a study demo; the purpose of the study is to understand how people think about the physical and social world.</p><p><b>Procedures:</b> In this study, you will watch videos, read sentences, or see pictures, and answer simple questions about them. This study should take approximately 4 minutes</p><p><b>Participation:</b> Participation in this study is voluntary. If you decide to join now, you can change your mind later. <p><b>Risks and benefits:</b> There are no risks associated with participating in this study. There are no direct benefits associated with participating in this study. </p><p><b>Use of data by study researchers:</b> The research team led by Shari Liu at JHU will have access to your answers. Researcher contact information:</b> This study is run by Dr. Shari Liu at JHU. If you have any questions or concerns about this study, or in the very unlikely event of a research-related injury, please contact sliu199@jhu.edu. <p> Do you consent to participate? </p>","0","","","","","","","","","","","",""
"","","","","","instructions","2","2.1.0","63326","3FA5CA2830F743A284852552BAF32E47","","019a08eb-2e9e-73d9-8903-936d45d7eccc","","58162","","","[{""page_index"":0,""viewing_time"":58162}]","","","","","","","","","","",""
"","","","","","html-button-response","3","2.1.0","72268","3FA5CA2830F743A284852552BAF32E47","","019a08eb-2e9e-73d9-8903-936d45d7eccc","","8941","<p style=""font-size: 25px;"">Suppose someone told you about a creature that could <strong>get tired</strong>. <br>The creature has one of the following two abilities, and not the other. <br>Which of these two abilities do you think the creature also has?</p>","0","","preceding","get tired","jump up and down","feel scared","<p style=""font-size: 25px;"">The ability to <strong>jump up and down</strong></p>","","","","","",""
"","","","","","html-button-response","4","2.1.0","77682","3FA5CA2830F743A284852552BAF32E47","","019a08eb-2e9e-73d9-8903-936d45d7eccc","","5414","<p style=""font-size: 25px;"">Suppose someone told you about a creature that could <strong>reach for something</strong>. <br>The creature has one of the following two abilities, and not the other. <br>Which of these two abilities do you think the creature also has?</p>","1","","preceding","reach for something","become hungry","kick something","<p style=""font-size: 25px;"">The ability to <strong>become hungry</strong></p>","","","","","",""
"","","","","","html-button-response","5","2.1.0","87440","3FA5CA2830F743A284852552BAF32E47","","019a08eb-2e9e-73d9-8903-936d45d7eccc","","9757","<p style=""font-size: 25px;"">Suppose someone told you about a creature that could <strong>choose what to do</strong>. <br>The creature has one of the following two abilities, and not the other. <br>Which of these two abilities do you think the creature also has?</p>","1","","preceding","choose what to do","experience pain","remember something","<p style=""font-size: 25px;"">The ability to <strong>remember something</strong></p>","","","","","",""
"","","","","","html-button-response","6","2.1.0","91786","3FA5CA2830F743A284852552BAF32E47","","019a08eb-2e9e-73d9-8903-936d45d7eccc","","4346","<p style=""font-size: 25px;"">Suppose someone told you about a creature that could <strong>hear something</strong>. <br>The creature has one of the following two abilities, and not the other. <br>Which of these two abilities do you think the creature also has?</p>","1","","preceding","hear something","take a walk","see something","<p style=""font-size: 25px;"">The ability to <strong>see something</strong></p>","","","","","",""
"","","","","","html-button-response","7","2.1.0","96401","3FA5CA2830F743A284852552BAF32E47","","019a08eb-2e9e-73d9-8903-936d45d7eccc","","4614","<p style=""font-size: 25px;"">Suppose someone told you about a creature that could <strong>sit down</strong>. <br>The creature has one of the following two abilities, and not the other. <br>Which of these two abilities do you think the creature also has?</p>","0","","preceding","sit down","experience pain","jump up and down","<p style=""font-size: 25px;"">The ability to <strong>jump up and down</strong></p>","","","","","",""
"","","","","","html-button-response","8","2.1.0","100308","3FA5CA2830F743A284852552BAF32E47","","019a08eb-2e9e-73d9-8903-936d45d7eccc","","3907","<p style=""font-size: 25px;"">Suppose someone told you about a creature that could <strong>experience pain</strong>. <br>The creature has one of the following two abilities, and not the other. <br>Which of these two abilities do you think the creature also has?</p>","0","","preceding","experience pain","kick something","get tired","<p style=""font-size: 25px;"">The ability to <strong>get tired</strong></p>","","","","","",""
"","","","","","html-button-response","9","2.1.0","103910","3FA5CA2830F743A284852552BAF32E47","","019a08eb-2e9e-73d9-8903-936d45d7eccc","","3601","<p style=""font-size: 25px;"">Suppose someone told you about a creature that could <strong>kick something</strong>. <br>The creature has one of the following two abilities, and not the other. <br>Which of these two abilities do you think the creature also has?</p>","1","","preceding","kick something","think about something","sit down","<p style=""font-size: 25px;"">The ability to <strong>think about something</strong></p>","","","","","",""
"","","","","","html-button-response","10","2.1.0","106020","3FA5CA2830F743A284852552BAF32E47","","019a08eb-2e9e-73d9-8903-936d45d7eccc","","2109","<p style=""font-size: 25px;"">Suppose someone told you about a creature that could <strong>see something</strong>. <br>The creature has one of the following two abilities, and not the other. <br>Which of these two abilities do you think the creature also has?</p>","0","","preceding","see something","take a walk","hear something","<p style=""font-size: 25px;"">The ability to <strong>hear something</strong></p>","","","","","",""
"","","","","","html-button-response","11","2.1.0","110730","3FA5CA2830F743A284852552BAF32E47","","019a08eb-2e9e-73d9-8903-936d45d7eccc","","4710","<p style=""font-size: 25px;"">Suppose someone told you about a creature that could <strong>become hungry</strong>. <br>The creature has one of the following two abilities, and not the other. <br>Which of these two abilities do you think the creature also has?</p>","1","","preceding","become hungry","take a walk","feel scared","<p style=""font-size: 25px;"">The ability to <strong>feel scared</strong></p>","","","","","",""
"","","","","","html-button-response","12","2.1.0","114729","3FA5CA2830F743A284852552BAF32E47","","019a08eb-2e9e-73d9-8903-936d45d7eccc","","4001","<p style=""font-size: 25px;"">For this question, ignore the previous instructions. <br>Instead, please select ""the ability to <strong>choose what to do</strong>"".</p>","0","","attention_check","","","","choose what to do","choose what to do","","","","",""
"","","","","","html-button-response","13","2.1.0","118858","3FA5CA2830F743A284852552BAF32E47","","019a08eb-2e9e-73d9-8903-936d45d7eccc","","4128","<p style=""font-size: 25px;"">Suppose someone told you about a creature that could <strong>feel scared</strong>. <br>The creature has one of the following two abilities, and not the other. <br>Which of these two abilities do you think the creature also has?</p>","0","","preceding","feel scared","see something","get tired","<p style=""font-size: 25px;"">The ability to <strong>see something</strong></p>","","","","","",""
"","","","","","html-button-response","14","2.1.0","120960","3FA5CA2830F743A284852552BAF32E47","","019a08eb-2e9e-73d9-8903-936d45d7eccc","","2102","<p style=""font-size: 25px;"">Suppose someone told you about a creature that could <strong>think about something</strong>. <br>The creature has one of the following two abilities, and not the other. <br>Which of these two abilities do you think the creature also has?</p>","0","","preceding","think about something","get sick","remember something","<p style=""font-size: 25px;"">The ability to <strong>remember something</strong></p>","","","","","",""
"","","","","","html-button-response","15","2.1.0","122275","3FA5CA2830F743A284852552BAF32E47","","019a08eb-2e9e-73d9-8903-936d45d7eccc","","1315","<p style=""font-size: 25px;"">Suppose someone told you about a creature that could <strong>remember something</strong>. <br>The creature has one of the following two abilities, and not the other. <br>Which of these two abilities do you think the creature also has?</p>","1","","preceding","remember something","take a walk","think about something","<p style=""font-size: 25px;"">The ability to <strong>think about something</strong></p>","","","","","",""
"","","","","","html-button-response","16","2.1.0","125658","3FA5CA2830F743A284852552BAF32E47","","019a08eb-2e9e-73d9-8903-936d45d7eccc","","3382","<p style=""font-size: 25px;"">Suppose someone told you about a creature that could <strong>take a walk</strong>. <br>The creature has one of the following two abilities, and not the other. <br>Which of these two abilities do you think the creature also has?</p>","1","","preceding","take a walk","think about something","jump up and down","<p style=""font-size: 25px;"">The ability to <strong>jump up and down</strong></p>","","","","","",""
"","","","","","html-button-response","17","2.1.0","127438","3FA5CA2830F743A284852552BAF32E47","","019a08eb-2e9e-73d9-8903-936d45d7eccc","","1780","<p style=""font-size: 25px;"">Suppose someone told you about a creature that could <strong>jump up and down</strong>. <br>The creature has one of the following two abilities, and not the other. <br>Which of these two abilities do you think the creature also has?</p>","0","","preceding","jump up and down","see something","sit down","<p style=""font-size: 25px;"">The ability to <strong>sit down</strong></p>","","","","","",""
"","","","","","html-button-response","18","2.1.0","130090","3FA5CA2830F743A284852552BAF32E47","","019a08eb-2e9e-73d9-8903-936d45d7eccc","","2651","<p style=""font-size: 25px;"">Suppose someone told you about a creature that could <strong>get sick</strong>. <br>The creature has one of the following two abilities, and not the other. <br>Which of these two abilities do you think the creature also has?</p>","0","","preceding","get sick","see something","get tired","<p style=""font-size: 25px;"">The ability to <strong>get tired</strong></p>","","","","","",""
"","","","","","instructions","19","2.1.0","138647","3FA5CA2830F743A284852552BAF32E47","","019a08eb-2e9e-73d9-8903-936d45d7eccc","","8556","","","[{""page_index"":0,""viewing_time"":8556}]","","","","","","","","","","",""
"","","","","","survey-html-form","20","2.1.0","185452","3FA5CA2830F743A284852552BAF32E47","","019a08eb-2e9e-73d9-8903-936d45d7eccc","demographics_survey","46805","","{""feedback"":""I tried to pick abilities that correlated with what the creature might do after their first ability or was related to their first ability in some way."",""age"":""30"",""gender"":""Male"",""other_gender"":"""",""race"":""White"",""other_race"":"""",""ethnicity"":""Non-Hispanic""}","","","","","","","","I tried to pick abilities that correlated with what the creature might do after their first ability or was related to their first ability in some way.","30","Non-Hispanic","Male","White"
