"success","timeout","failed_images","failed_audio","failed_video","trial_type","trial_index","plugin_version","time_elapsed","mturk_participant_id","mturk_assignment_id","mturk_project_id","trial_id","rt","stimulus","response","view_history","condition","itemB","preceding_causal_itemA","preceding_similar_itemA","selected_choice","correct_response_attn","feedback","age","ethnicity","gender","race"
"true","false","[]","[]","[]","preload","0","2.1.0","4","E05FC54B21744DFD975E9C5BF07D9A5C","","019a0831-62fe-74e3-9f5a-266829f91758","","","","","","","","","","","","","","","",""
"","","","","","html-button-response","1","2.1.0","3422","E05FC54B21744DFD975E9C5BF07D9A5C","","019a0831-62fe-74e3-9f5a-266829f91758","consent","3417","<p><b>Consent Form</b></p> <div style=""text-align:left;background-color:lightblue; padding:2vw; max-width:80vw;""><p><b>Purpose:</b> This is a study demo; the purpose of the study is to understand how people think about the physical and social world.</p><p><b>Procedures:</b> In this study, you will watch videos, read sentences, or see pictures, and answer simple questions about them. This study should take approximately 4 minutes</p><p><b>Participation:</b> Participation in this study is voluntary. If you decide to join now, you can change your mind later. <p><b>Risks and benefits:</b> There are no risks associated with participating in this study. There are no direct benefits associated with participating in this study. </p><p><b>Use of data by study researchers:</b> The research team led by Shari Liu at JHU will have access to your answers. Researcher contact information:</b> This study is run by Dr. Shari Liu at JHU. If you have any questions or concerns about this study, or in the very unlikely event of a research-related injury, please contact sliu199@jhu.edu. <p> Do you consent to participate? </p>","0","","","","","","","","","","","",""
"","","","","","instructions","2","2.1.0","19118","E05FC54B21744DFD975E9C5BF07D9A5C","","019a0831-62fe-74e3-9f5a-266829f91758","","15695","","","[{""page_index"":0,""viewing_time"":15694}]","","","","","","","","","","",""
"","","","","","html-button-response","3","2.1.0","25192","E05FC54B21744DFD975E9C5BF07D9A5C","","019a0831-62fe-74e3-9f5a-266829f91758","","6073","<p style=""font-size: 25px;"">Suppose someone told you about a creature that could <strong>jump up and down</strong>. <br>The creature has one of the following two abilities, and not the other. <br> Which of these two do you think the creature has?</p>","0","","following","jump up and down","see something","sit down","<p style=""font-size: 25px;"">The ability to <strong>get tired</strong></p>","","","","","",""
"","","","","","html-button-response","4","2.1.0","30022","E05FC54B21744DFD975E9C5BF07D9A5C","","019a0831-62fe-74e3-9f5a-266829f91758","","4828","<p style=""font-size: 25px;"">Suppose someone told you about a creature that could <strong>get sick</strong>. <br>The creature has one of the following two abilities, and not the other. <br> Which of these two do you think the creature has?</p>","0","","following","get sick","see something","get tired","<p style=""font-size: 25px;"">The ability to <strong>sit down</strong></p>","","","","","",""
"","","","","","html-button-response","5","2.1.0","34533","E05FC54B21744DFD975E9C5BF07D9A5C","","019a0831-62fe-74e3-9f5a-266829f91758","","4509","<p style=""font-size: 25px;"">Suppose someone told you about a creature that could <strong>sit down</strong>. <br>The creature has one of the following two abilities, and not the other. <br> Which of these two do you think the creature has?</p>","0","","following","sit down","experience pain","jump up and down","<p style=""font-size: 25px;"">The ability to <strong>jump up and down</strong></p>","","","","","",""
"","","","","","html-button-response","6","2.1.0","38234","E05FC54B21744DFD975E9C5BF07D9A5C","","019a0831-62fe-74e3-9f5a-266829f91758","","3699","<p style=""font-size: 25px;"">Suppose someone told you about a creature that could <strong>see something</strong>. <br>The creature has one of the following two abilities, and not the other. <br> Which of these two do you think the creature has?</p>","0","","following","see something","take a walk","hear something","<p style=""font-size: 25px;"">The ability to <strong>hear something</strong></p>","","","","","",""
"","","","","","html-button-response","7","2.1.0","41641","E05FC54B21744DFD975E9C5BF07D9A5C","","019a0831-62fe-74e3-9f5a-266829f91758","","3406","<p style=""font-size: 25px;"">Suppose someone told you about a creature that could <strong>remember something</strong>. <br>The creature has one of the following two abilities, and not the other. <br> Which of these two do you think the creature has?</p>","0","","following","remember something","take a walk","think about something","<p style=""font-size: 25px;"">The ability to <strong>feel scared</strong></p>","","","","","",""
"","","","","","html-button-response","8","2.1.0","44898","E05FC54B21744DFD975E9C5BF07D9A5C","","019a0831-62fe-74e3-9f5a-266829f91758","","3255","<p style=""font-size: 25px;"">Suppose someone told you about a creature that could <strong>think about something</strong>. <br>The creature has one of the following two abilities, and not the other. <br> Which of these two do you think the creature has?</p>","1","","following","think about something","get sick","remember something","<p style=""font-size: 25px;"">The ability to <strong>feel scared</strong></p>","","","","","",""
"","","","","","html-button-response","9","2.1.0","47725","E05FC54B21744DFD975E9C5BF07D9A5C","","019a0831-62fe-74e3-9f5a-266829f91758","","2825","<p style=""font-size: 25px;"">Suppose someone told you about a creature that could <strong>kick something</strong>. <br>The creature has one of the following two abilities, and not the other. <br> Which of these two do you think the creature has?</p>","0","","following","kick something","think about something","sit down","<p style=""font-size: 25px;"">The ability to <strong>experience pain</strong></p>","","","","","",""
"","","","","","html-button-response","10","2.1.0","49981","E05FC54B21744DFD975E9C5BF07D9A5C","","019a0831-62fe-74e3-9f5a-266829f91758","","2255","<p style=""font-size: 25px;"">Suppose someone told you about a creature that could <strong>get tired</strong>. <br>The creature has one of the following two abilities, and not the other. <br> Which of these two do you think the creature has?</p>","1","","following","get tired","jump up and down","feel scared","<p style=""font-size: 25px;"">The ability to <strong>sit down</strong></p>","","","","","",""
"","","","","","html-button-response","11","2.1.0","51828","E05FC54B21744DFD975E9C5BF07D9A5C","","019a0831-62fe-74e3-9f5a-266829f91758","","1846","<p style=""font-size: 25px;"">Suppose someone told you about a creature that could <strong>hear something</strong>. <br>The creature has one of the following two abilities, and not the other. <br> Which of these two do you think the creature has?</p>","1","","following","hear something","take a walk","see something","<p style=""font-size: 25px;"">The ability to <strong>see something</strong></p>","","","","","",""
"","","","","","html-button-response","12","2.1.0","57105","E05FC54B21744DFD975E9C5BF07D9A5C","","019a0831-62fe-74e3-9f5a-266829f91758","","5275","<p style=""font-size: 25px;"">Suppose someone told you about a creature that could <strong>experience pain</strong>. <br>The creature has one of the following two abilities, and not the other. <br> Which of these two do you think the creature has?</p>","0","","following","experience pain","kick something","get tired","<p style=""font-size: 25px;"">The ability to <strong>become hungry</strong></p>","","","","","",""
"","","","","","html-button-response","13","2.1.0","64337","E05FC54B21744DFD975E9C5BF07D9A5C","","019a0831-62fe-74e3-9f5a-266829f91758","","7230","<p style=""font-size: 25px;"">Suppose someone told you about a creature that could <strong>reach for something</strong>. <br>The creature has one of the following two abilities, and not the other. <br> Which of these two do you think the creature has?</p>","0","","following","reach for something","become hungry","kick something","<p style=""font-size: 25px;"">The ability to <strong>take a walk</strong></p>","","","","","",""
"","","","","","html-button-response","14","2.1.0","67517","E05FC54B21744DFD975E9C5BF07D9A5C","","019a0831-62fe-74e3-9f5a-266829f91758","","3179","<p style=""font-size: 25px;"">Suppose someone told you about a creature that could <strong>take a walk</strong>. <br>The creature has one of the following two abilities, and not the other. <br> Which of these two do you think the creature has?</p>","0","","following","take a walk","think about something","jump up and down","<p style=""font-size: 25px;"">The ability to <strong>jump up and down</strong></p>","","","","","",""
"","","","","","html-button-response","15","2.1.0","70509","E05FC54B21744DFD975E9C5BF07D9A5C","","019a0831-62fe-74e3-9f5a-266829f91758","","2990","<p style=""font-size: 25px;"">Suppose someone told you about a creature that could <strong>feel scared</strong>. <br>The creature has one of the following two abilities, and not the other. <br> Which of these two do you think the creature has?</p>","1","","following","feel scared","see something","get tired","<p style=""font-size: 25px;"">The ability to <strong>think about something</strong></p>","","","","","",""
"","","","","","html-button-response","16","2.1.0","74768","E05FC54B21744DFD975E9C5BF07D9A5C","","019a0831-62fe-74e3-9f5a-266829f91758","","4258","<p style=""font-size: 25px;"">Suppose someone told you about a creature that could <strong>choose what to do</strong>. <br>The creature has one of the following two abilities, and not the other. <br> Which of these two do you think the creature has?</p>","0","","following","choose what to do","experience pain","remember something","<p style=""font-size: 25px;"">The ability to <strong>feel scared</strong></p>","","","","","",""
"","","","","","html-button-response","17","2.1.0","80349","E05FC54B21744DFD975E9C5BF07D9A5C","","019a0831-62fe-74e3-9f5a-266829f91758","","5579","<p style=""font-size: 25px;"">For this question, ignore the previous instructions. <br>Instead, please select ""the ability to <strong>choose what to do</strong>"".</p>","0","","attention_check","","","","choose what to do","choose what to do","","","","",""
"","","","","","html-button-response","18","2.1.0","89305","E05FC54B21744DFD975E9C5BF07D9A5C","","019a0831-62fe-74e3-9f5a-266829f91758","","8955","<p style=""font-size: 25px;"">Suppose someone told you about a creature that could <strong>become hungry</strong>. <br>The creature has one of the following two abilities, and not the other. <br> Which of these two do you think the creature has?</p>","1","","following","become hungry","take a walk","feel scared","<p style=""font-size: 25px;"">The ability to <strong>feel scared</strong></p>","","","","","",""
"","","","","","instructions","19","2.1.0","100089","E05FC54B21744DFD975E9C5BF07D9A5C","","019a0831-62fe-74e3-9f5a-266829f91758","","10783","","","[{""page_index"":0,""viewing_time"":10782}]","","","","","","","","","","",""
"","","","","","survey-html-form","20","2.1.0","132209","E05FC54B21744DFD975E9C5BF07D9A5C","","019a0831-62fe-74e3-9f5a-266829f91758","demographics_survey","32114","","{""feedback"":""The main factor was thinking about which of the two options connected to the first ability more."",""age"":""45"",""gender"":""Male"",""other_gender"":"""",""race"":""White"",""other_race"":"""",""ethnicity"":""Non-Hispanic""}","","","","","","","","The main factor was thinking about which of the two options connected to the first ability more.","45","Non-Hispanic","Male","White"
