"success","timeout","failed_images","failed_audio","failed_video","trial_type","trial_index","plugin_version","time_elapsed","mturk_participant_id","mturk_assignment_id","mturk_project_id","trial_id","rt","stimulus","response","view_history","condition","itemB","causal_itemA","similar_itemA","selected_choice","correct_response_attn","feedback","age","ethnicity","gender","race"
"true","false","[]","[]","[]","preload","0","2.1.0","3","test_uy9l6hve4f","","","","","","","","","","","","","","","","","",""
"","","","","","html-button-response","1","2.1.0","3632","test_uy9l6hve4f","","","consent","3627","<p><b>Consent Form</b></p> <div style=""text-align:left;background-color:lightblue; padding:2vw; max-width:80vw;""><p><b>Purpose:</b> This is a study demo; the purpose of the study is to understand how people think about the physical and social world.</p><p><b>Procedures:</b> In this study, you will watch videos, read sentences, or see pictures, and answer simple questions about them. This study should take approximately 4 minutes</p><p><b>Participation:</b> Participation in this study is voluntary. If you decide to join now, you can change your mind later. <p><b>Risks and benefits:</b> There are no risks associated with participating in this study. There are no direct benefits associated with participating in this study. </p><p><b>Use of data by study researchers:</b> The research team led by Shari Liu at JHU will have access to your answers. Researcher contact information:</b> This study is run by Dr. Shari Liu at JHU. If you have any questions or concerns about this study, or in the very unlikely event of a research-related injury, please contact sliu199@jhu.edu. <p> Do you consent to participate? </p>","0","","","","","","","","","","","",""
"","","","","","instructions","2","2.1.0","4724","test_uy9l6hve4f","","","","1090","","","[{""page_index"":0,""viewing_time"":1090}]","","","","","","","","","","",""
"","","","","","html-button-response","3","2.1.0","13799","test_uy9l6hve4f","","","","9073","<p style=""font-size: 25px;"">Choose the spell that you think will best lead to the
              outcome - the one most likely to succeed. <br><br>Suppose you wanted to give a creature the 
              ability to <strong>get tired</strong>. <br>However, you ran out of that specific spell.
               <br>Which of these two other spells would most likely accomplish your goal? <br>Granting the 
               creature the ability to ... </p>","0","","magical","get tired","jump up and down","feel scared","<p style=""font-size: 25px;""><strong>jump up and down</strong></p>","","","","","",""
"","","","","","html-button-response","4","2.1.0","19201","test_uy9l6hve4f","","","","5400","<p style=""font-size: 25px;"">Choose the spell that you think will best lead to the
              outcome - the one most likely to succeed. <br><br>Suppose you wanted to give a creature the 
              ability to <strong>think about something</strong>. <br>However, you ran out of that specific spell.
               <br>Which of these two other spells would most likely accomplish your goal? <br>Granting the 
               creature the ability to ... </p>","0","","magical","think about something","get sick","remember something","<p style=""font-size: 25px;""><strong>remember something</strong></p>","","","","","",""
"","","","","","html-button-response","5","2.1.0","21451","test_uy9l6hve4f","","","","2248","<p style=""font-size: 25px;"">Choose the spell that you think will best lead to the
              outcome - the one most likely to succeed. <br><br>Suppose you wanted to give a creature the 
              ability to <strong>feel scared</strong>. <br>However, you ran out of that specific spell.
               <br>Which of these two other spells would most likely accomplish your goal? <br>Granting the 
               creature the ability to ... </p>","0","","magical","feel scared","see something","get tired","<p style=""font-size: 25px;""><strong>see something</strong></p>","","","","","",""
"","","","","","html-button-response","6","2.1.0","23742","test_uy9l6hve4f","","","","2289","<p style=""font-size: 25px;"">Choose the spell that you think will best lead to the
              outcome - the one most likely to succeed. <br><br>Suppose you wanted to give a creature the 
              ability to <strong>get sick</strong>. <br>However, you ran out of that specific spell.
               <br>Which of these two other spells would most likely accomplish your goal? <br>Granting the 
               creature the ability to ... </p>","1","","magical","get sick","see something","get tired","<p style=""font-size: 25px;""><strong>get tired</strong></p>","","","","","",""
"","","","","","html-button-response","7","2.1.0","27150","test_uy9l6hve4f","","","","3406","<p style=""font-size: 25px;"">Choose the spell that you think will best lead to the
              outcome - the one most likely to succeed. <br><br>Suppose you wanted to give a creature the 
              ability to <strong>see something</strong>. <br>However, you ran out of that specific spell.
               <br>Which of these two other spells would most likely accomplish your goal? <br>Granting the 
               creature the ability to ... </p>","0","","magical","see something","take a walk","hear something","<p style=""font-size: 25px;""><strong>take a walk</strong></p>","","","","","",""
"","","","","","html-button-response","8","2.1.0","29761","test_uy9l6hve4f","","","","2609","<p style=""font-size: 25px;"">Choose the spell that you think will best lead to the
              outcome - the one most likely to succeed. <br><br>Suppose you wanted to give a creature the 
              ability to <strong>kick something</strong>. <br>However, you ran out of that specific spell.
               <br>Which of these two other spells would most likely accomplish your goal? <br>Granting the 
               creature the ability to ... </p>","1","","magical","kick something","think about something","sit down","<p style=""font-size: 25px;""><strong>think about something</strong></p>","","","","","",""
"","","","","","html-button-response","9","2.1.0","33437","test_uy9l6hve4f","","","","3674","<p style=""font-size: 25px;"">Choose the spell that you think will best lead to the
              outcome - the one most likely to succeed. <br><br>Suppose you wanted to give a creature the 
              ability to <strong>reach for something</strong>. <br>However, you ran out of that specific spell.
               <br>Which of these two other spells would most likely accomplish your goal? <br>Granting the 
               creature the ability to ... </p>","0","","magical","reach for something","become hungry","kick something","<p style=""font-size: 25px;""><strong>become hungry</strong></p>","","","","","",""
"","","","","","html-button-response","10","2.1.0","36314","test_uy9l6hve4f","","","","2876","<p style=""font-size: 25px;"">Choose the spell that you think will best lead to the
              outcome - the one most likely to succeed. <br><br>Suppose you wanted to give a creature the 
              ability to <strong>jump up and down</strong>. <br>However, you ran out of that specific spell.
               <br>Which of these two other spells would most likely accomplish your goal? <br>Granting the 
               creature the ability to ... </p>","0","","magical","jump up and down","see something","sit down","<p style=""font-size: 25px;""><strong>see something</strong></p>","","","","","",""
"","","","","","html-button-response","11","2.1.0","38686","test_uy9l6hve4f","","","","2370","<p style=""font-size: 25px;"">Choose the spell that you think will best lead to the
              outcome - the one most likely to succeed. <br><br>Suppose you wanted to give a creature the 
              ability to <strong>sit down</strong>. <br>However, you ran out of that specific spell.
               <br>Which of these two other spells would most likely accomplish your goal? <br>Granting the 
               creature the ability to ... </p>","0","","magical","sit down","experience pain","jump up and down","<p style=""font-size: 25px;""><strong>experience pain</strong></p>","","","","","",""
"","","","","","html-button-response","12","2.1.0","41760","test_uy9l6hve4f","","","","3072","<p style=""font-size: 25px;"">Choose the spell that you think will best lead to the
              outcome - the one most likely to succeed. <br><br>Suppose you wanted to give a creature the 
              ability to <strong>remember something</strong>. <br>However, you ran out of that specific spell.
               <br>Which of these two other spells would most likely accomplish your goal? <br>Granting the 
               creature the ability to ... </p>","0","","magical","remember something","take a walk","think about something","<p style=""font-size: 25px;""><strong>think about something</strong></p>","","","","","",""
"","","","","","html-button-response","13","2.1.0","43259","test_uy9l6hve4f","","","","1497","<p style=""font-size: 25px;"">For this question, please select ""<strong>choose what to do</strong>""</p>","0","","attention_check_ordinary","","","","choose what to do","choose what to do","","","","",""
"","","","","","html-button-response","14","2.1.0","46756","test_uy9l6hve4f","","","","3495","<p style=""font-size: 25px;"">Choose the spell that you think will best lead to the
              outcome - the one most likely to succeed. <br><br>Suppose you wanted to give a creature the 
              ability to <strong>take a walk</strong>. <br>However, you ran out of that specific spell.
               <br>Which of these two other spells would most likely accomplish your goal? <br>Granting the 
               creature the ability to ... </p>","1","","magical","take a walk","think about something","sit down","<p style=""font-size: 25px;""><strong>think about something</strong></p>","","","","","",""
"","","","","","html-button-response","15","2.1.0","48359","test_uy9l6hve4f","","","","1602","<p style=""font-size: 25px;"">Choose the spell that you think will best lead to the
              outcome - the one most likely to succeed. <br><br>Suppose you wanted to give a creature the 
              ability to <strong>hear something</strong>. <br>However, you ran out of that specific spell.
               <br>Which of these two other spells would most likely accomplish your goal? <br>Granting the 
               creature the ability to ... </p>","1","","magical","hear something","take a walk","see something","<p style=""font-size: 25px;""><strong>see something</strong></p>","","","","","",""
"","","","","","html-button-response","16","2.1.0","50507","test_uy9l6hve4f","","","","2146","<p style=""font-size: 25px;"">Choose the spell that you think will best lead to the
              outcome - the one most likely to succeed. <br><br>Suppose you wanted to give a creature the 
              ability to <strong>experience pain</strong>. <br>However, you ran out of that specific spell.
               <br>Which of these two other spells would most likely accomplish your goal? <br>Granting the 
               creature the ability to ... </p>","0","","magical","experience pain","kick something","get tired","<p style=""font-size: 25px;""><strong>kick something</strong></p>","","","","","",""
"","","","","","html-button-response","17","2.1.0","53552","test_uy9l6hve4f","","","","3043","<p style=""font-size: 25px;"">Choose the spell that you think will best lead to the
              outcome - the one most likely to succeed. <br><br>Suppose you wanted to give a creature the 
              ability to <strong>become hungry</strong>. <br>However, you ran out of that specific spell.
               <br>Which of these two other spells would most likely accomplish your goal? <br>Granting the 
               creature the ability to ... </p>","1","","magical","become hungry","take a walk","feel scared","<p style=""font-size: 25px;""><strong>take a walk</strong></p>","","","","","",""
"","","","","","html-button-response","18","2.1.0","57824","test_uy9l6hve4f","","","","4271","<p style=""font-size: 25px;"">Choose the spell that you think will best lead to the
              outcome - the one most likely to succeed. <br><br>Suppose you wanted to give a creature the 
              ability to <strong>choose what to do</strong>. <br>However, you ran out of that specific spell.
               <br>Which of these two other spells would most likely accomplish your goal? <br>Granting the 
               creature the ability to ... </p>","1","","magical","choose what to do","experience pain","remember something","<p style=""font-size: 25px;""><strong>remember something</strong></p>","","","","","",""
"","","","","","instructions","19","2.1.0","59236","test_uy9l6hve4f","","","","1411","","","[{""page_index"":0,""viewing_time"":1411}]","","","","","","","","","","",""
"","","","","","survey-html-form","20","2.1.0","66917","test_uy9l6hve4f","","","demographics_survey","7677","","{""feedback"":"""",""age"":""39"",""gender"":""Male"",""other_gender"":"""",""race"":""White"",""other_race"":"""",""ethnicity"":""Non-Hispanic""}","","","","","","","","","39","Non-Hispanic","Male","White"
