"success","timeout","failed_images","failed_audio","failed_video","trial_type","trial_index","plugin_version","time_elapsed","mturk_participant_id","mturk_assignment_id","mturk_project_id","trial_id","rt","stimulus","response","view_history","condition","correct_response_attn","selected_choice","itemB","causal_itemA","similar_itemA","feedback","age","ethnicity","gender","race"
"true","false","[]","[]","[]","preload","0","2.1.0","12","test_wrzf3sbfbl","","","","","","","","","","","","","","","","","",""
"","","","","","html-button-response","1","2.1.0","5049","test_wrzf3sbfbl","","","consent","5033","<p><b>Consent Form</b></p> <div style=""text-align:left;background-color:lightblue; padding:2vw; max-width:80vw;""><p><b>Purpose:</b> This is a study demo; the purpose of the study is to understand how people think about the physical and social world.</p><p><b>Procedures:</b> In this study, you will watch videos, read sentences, or see pictures, and answer simple questions about them. This study should take approximately 4 minutes</p><p><b>Participation:</b> Participation in this study is voluntary. If you decide to join now, you can change your mind later. <p><b>Risks and benefits:</b> There are no risks associated with participating in this study. There are no direct benefits associated with participating in this study. </p><p><b>Use of data by study researchers:</b> The research team led by Shari Liu at JHU will have access to your answers. Researcher contact information:</b> This study is run by Dr. Shari Liu at JHU. If you have any questions or concerns about this study, or in the very unlikely event of a research-related injury, please contact sliu199@jhu.edu. <p> Do you consent to participate? </p>","0","","","","","","","","","","","",""
"","","","","","instructions","2","2.1.0","10926","test_wrzf3sbfbl","","","","5875","","","[{""page_index"":0,""viewing_time"":5875}]","","","","","","","","","","",""
"","","","","","html-button-response","3","2.1.0","13041","test_wrzf3sbfbl","","","","2112","<p style=""font-size: 25px;"">For this question, please select ""<strong>choose what to do</strong>""</p>","0","","attention_check_magical","choose what to do","choose what to do","","","","","","","",""
"","","","","","html-button-response","4","2.1.0","17680","test_wrzf3sbfbl","","","","4637","<p style=""font-size: 25px;"">Choose the action that you think will best lead to the 
                outcome - the one most likely to succeed. <br><br>Suppose that you wanted to make someone 
                else <strong>become hungry</strong>. <br>Which of these two actions would most likely
                accomplish your goal? Making them ... </p>","0","","ordinary","","<p style=""font-size: 25px;""><strong>take a walk</strong></p>","become hungry","take a walk","feel scared","","","","",""
"","","","","","html-button-response","5","2.1.0","22151","test_wrzf3sbfbl","","","","4468","<p style=""font-size: 25px;"">Choose the action that you think will best lead to the 
                outcome - the one most likely to succeed. <br><br>Suppose that you wanted to make someone 
                else <strong>jump up and down</strong>. <br>Which of these two actions would most likely
                accomplish your goal? Making them ... </p>","0","","ordinary","","<p style=""font-size: 25px;""><strong>see something</strong></p>","jump up and down","see something","sit down","","","","",""
"","","","","","html-button-response","6","2.1.0","24968","test_wrzf3sbfbl","","","","2816","<p style=""font-size: 25px;"">Choose the action that you think will best lead to the 
                outcome - the one most likely to succeed. <br><br>Suppose that you wanted to make someone 
                else <strong>see something</strong>. <br>Which of these two actions would most likely
                accomplish your goal? Making them ... </p>","1","","ordinary","","<p style=""font-size: 25px;""><strong>take a walk</strong></p>","see something","take a walk","hear something","","","","",""
"","","","","","html-button-response","7","2.1.0","27630","test_wrzf3sbfbl","","","","2660","<p style=""font-size: 25px;"">Choose the action that you think will best lead to the 
                outcome - the one most likely to succeed. <br><br>Suppose that you wanted to make someone 
                else <strong>get sick</strong>. <br>Which of these two actions would most likely
                accomplish your goal? Making them ... </p>","0","","ordinary","","<p style=""font-size: 25px;""><strong>get tired</strong></p>","get sick","see something","get tired","","","","",""
"","","","","","html-button-response","8","2.1.0","33328","test_wrzf3sbfbl","","","","5695","<p style=""font-size: 25px;"">Choose the action that you think will best lead to the 
                outcome - the one most likely to succeed. <br><br>Suppose that you wanted to make someone 
                else <strong>choose what to do</strong>. <br>Which of these two actions would most likely
                accomplish your goal? Making them ... </p>","0","","ordinary","","<p style=""font-size: 25px;""><strong>remember something</strong></p>","choose what to do","experience pain","remember something","","","","",""
"","","","","","html-button-response","9","2.1.0","36986","test_wrzf3sbfbl","","","","3656","<p style=""font-size: 25px;"">Choose the action that you think will best lead to the 
                outcome - the one most likely to succeed. <br><br>Suppose that you wanted to make someone 
                else <strong>sit down</strong>. <br>Which of these two actions would most likely
                accomplish your goal? Making them ... </p>","1","","ordinary","","<p style=""font-size: 25px;""><strong>jump up and down</strong></p>","sit down","experience pain","jump up and down","","","","",""
"","","","","","html-button-response","10","2.1.0","42301","test_wrzf3sbfbl","","","","5312","<p style=""font-size: 25px;"">Choose the action that you think will best lead to the 
                outcome - the one most likely to succeed. <br><br>Suppose that you wanted to make someone 
                else <strong>take a walk</strong>. <br>Which of these two actions would most likely
                accomplish your goal? Making them ... </p>","1","","ordinary","","<p style=""font-size: 25px;""><strong>think about something</strong></p>","take a walk","think about something","sit down","","","","",""
"","","","","","html-button-response","11","2.1.0","44550","test_wrzf3sbfbl","","","","2248","<p style=""font-size: 25px;"">Choose the action that you think will best lead to the 
                outcome - the one most likely to succeed. <br><br>Suppose that you wanted to make someone 
                else <strong>hear something</strong>. <br>Which of these two actions would most likely
                accomplish your goal? Making them ... </p>","0","","ordinary","","<p style=""font-size: 25px;""><strong>take a walk</strong></p>","hear something","take a walk","see something","","","","",""
"","","","","","html-button-response","12","2.1.0","47160","test_wrzf3sbfbl","","","","2608","<p style=""font-size: 25px;"">Choose the action that you think will best lead to the 
                outcome - the one most likely to succeed. <br><br>Suppose that you wanted to make someone 
                else <strong>think about something</strong>. <br>Which of these two actions would most likely
                accomplish your goal? Making them ... </p>","0","","ordinary","","<p style=""font-size: 25px;""><strong>remember something</strong></p>","think about something","get sick","remember something","","","","",""
"","","","","","html-button-response","13","2.1.0","48981","test_wrzf3sbfbl","","","","1819","<p style=""font-size: 25px;"">Choose the action that you think will best lead to the 
                outcome - the one most likely to succeed. <br><br>Suppose that you wanted to make someone 
                else <strong>get tired</strong>. <br>Which of these two actions would most likely
                accomplish your goal? Making them ... </p>","0","","ordinary","","<p style=""font-size: 25px;""><strong>jump up and down</strong></p>","get tired","jump up and down","feel scared","","","","",""
"","","","","","html-button-response","14","2.1.0","51179","test_wrzf3sbfbl","","","","2196","<p style=""font-size: 25px;"">Choose the action that you think will best lead to the 
                outcome - the one most likely to succeed. <br><br>Suppose that you wanted to make someone 
                else <strong>experience pain</strong>. <br>Which of these two actions would most likely
                accomplish your goal? Making them ... </p>","1","","ordinary","","<p style=""font-size: 25px;""><strong>kick something</strong></p>","experience pain","kick something","get tired","","","","",""
"","","","","","html-button-response","15","2.1.0","53451","test_wrzf3sbfbl","","","","2270","<p style=""font-size: 25px;"">Choose the action that you think will best lead to the 
                outcome - the one most likely to succeed. <br><br>Suppose that you wanted to make someone 
                else <strong>feel scared</strong>. <br>Which of these two actions would most likely
                accomplish your goal? Making them ... </p>","0","","ordinary","","<p style=""font-size: 25px;""><strong>see something</strong></p>","feel scared","see something","get tired","","","","",""
"","","","","","html-button-response","16","2.1.0","55835","test_wrzf3sbfbl","","","","2382","<p style=""font-size: 25px;"">Choose the action that you think will best lead to the 
                outcome - the one most likely to succeed. <br><br>Suppose that you wanted to make someone 
                else <strong>kick something</strong>. <br>Which of these two actions would most likely
                accomplish your goal? Making them ... </p>","1","","ordinary","","<p style=""font-size: 25px;""><strong>think about something</strong></p>","kick something","think about something","sit down","","","","",""
"","","","","","html-button-response","17","2.1.0","59403","test_wrzf3sbfbl","","","","3566","<p style=""font-size: 25px;"">Choose the action that you think will best lead to the 
                outcome - the one most likely to succeed. <br><br>Suppose that you wanted to make someone 
                else <strong>reach for something</strong>. <br>Which of these two actions would most likely
                accomplish your goal? Making them ... </p>","1","","ordinary","","<p style=""font-size: 25px;""><strong>become hungry</strong></p>","reach for something","become hungry","kick something","","","","",""
"","","","","","html-button-response","18","2.1.0","60947","test_wrzf3sbfbl","","","","1541","<p style=""font-size: 25px;"">Choose the action that you think will best lead to the 
                outcome - the one most likely to succeed. <br><br>Suppose that you wanted to make someone 
                else <strong>remember something</strong>. <br>Which of these two actions would most likely
                accomplish your goal? Making them ... </p>","1","","ordinary","","<p style=""font-size: 25px;""><strong>think about something</strong></p>","remember something","take a walk","think about something","","","","",""
"","","","","","instructions","19","2.1.0","63091","test_wrzf3sbfbl","","","","2142","","","[{""page_index"":0,""viewing_time"":2142}]","","","","","","","","","","",""
"","","","","","survey-html-form","20","2.1.0","106592","test_wrzf3sbfbl","","","demographics_survey","43496","","{""feedback"":""I have no comments on the survey. I just picked the choice I thought was obvious. "",""age"":""34"",""gender"":""Male"",""other_gender"":"""",""race"":""Black/African American"",""other_race"":""""}","","","","","","","","I have no comments on the survey. I just picked the choice I thought was obvious. ","34","","Male","Black/African American"
