"success","timeout","failed_images","failed_audio","failed_video","trial_type","trial_index","plugin_version","time_elapsed","mturk_participant_id","mturk_assignment_id","mturk_project_id","trial_id","rt","stimulus","response","view_history","condition","itemB","preceding_causal_itemA","preceding_similar_itemA","selected_choice","correct_response_attn","feedback","age","ethnicity","gender","race"
"true","false","[]","[]","[]","preload","0","2.1.0","6","79CBC94796BB41D39D751793A66AED83","","0199f2a0-e393-77c9-8aea-ce82d4d5233b","","","","","","","","","","","","","","","",""
"","","","","","html-button-response","1","2.1.0","11979","79CBC94796BB41D39D751793A66AED83","","0199f2a0-e393-77c9-8aea-ce82d4d5233b","consent","11971","<p><b>Consent Form</b></p> <div style=""text-align:left;background-color:lightblue; padding:2vw; max-width:80vw;""><p><b>Purpose:</b> This is a study demo; the purpose of the study is to understand how people think about the physical and social world.</p><p><b>Procedures:</b> In this study, you will watch videos, read sentences, or see pictures, and answer simple questions about them. This study should take approximately 4 minutes</p><p><b>Participation:</b> Participation in this study is voluntary. If you decide to join now, you can change your mind later. <p><b>Risks and benefits:</b> There are no risks associated with participating in this study. There are no direct benefits associated with participating in this study. </p><p><b>Use of data by study researchers:</b> The research team led by Shari Liu at JHU will have access to your answers. Researcher contact information:</b> This study is run by Dr. Shari Liu at JHU. If you have any questions or concerns about this study, or in the very unlikely event of a research-related injury, please contact sliu199@jhu.edu. <p> Do you consent to participate? </p>","0","","","","","","","","","","","",""
"","","","","","instructions","2","2.1.0","15321","79CBC94796BB41D39D751793A66AED83","","0199f2a0-e393-77c9-8aea-ce82d4d5233b","","3339","","","[{""page_index"":0,""viewing_time"":3339}]","","","","","","","","","","",""
"","","","","","html-button-response","3","2.1.0","26041","79CBC94796BB41D39D751793A66AED83","","0199f2a0-e393-77c9-8aea-ce82d4d5233b","","10719","<p style=""font-size: 25px;"">You are working on a new creature which currently has no capabilities. <br>Using your magical powers, you cast the <em>Ulana</em> spell. <br>The <em>Ulana</em> spell gives the creature the capacity to <strong>sit down</strong>, and one other capacity. <br>Which do you think is this other capacity? </p>","0","","named_spell","sit down","experience pain","jump up and down","<p style=""font-size: 25px;""><strong>jump up and down</strong></p>","","","","","",""
"","","","","","html-button-response","4","2.1.0","33457","79CBC94796BB41D39D751793A66AED83","","0199f2a0-e393-77c9-8aea-ce82d4d5233b","","7414","<p style=""font-size: 25px;"">You are working on a new creature which currently has no capabilities. <br>Using your magical powers, you cast the <em>Ulana</em> spell. <br>The <em>Ulana</em> spell gives the creature the capacity to <strong>get tired</strong>, and one other capacity. <br>Which do you think is this other capacity? </p>","1","","named_spell","get tired","jump up and down","feel scared","<p style=""font-size: 25px;""><strong>feel scared</strong></p>","","","","","",""
"","","","","","html-button-response","5","2.1.0","39981","79CBC94796BB41D39D751793A66AED83","","0199f2a0-e393-77c9-8aea-ce82d4d5233b","","6521","<p style=""font-size: 25px;"">You are working on a new creature which currently has no capabilities. <br>Using your magical powers, you cast the <em>Ulana</em> spell. <br>The <em>Ulana</em> spell gives the creature the capacity to <strong>jump up and down</strong>, and one other capacity. <br>Which do you think is this other capacity? </p>","0","","named_spell","jump up and down","see something","sit down","<p style=""font-size: 25px;""><strong>sit down</strong></p>","","","","","",""
"","","","","","html-button-response","6","2.1.0","44286","79CBC94796BB41D39D751793A66AED83","","0199f2a0-e393-77c9-8aea-ce82d4d5233b","","4303","<p style=""font-size: 25px;"">You are working on a new creature which currently has no capabilities. <br>Using your magical powers, you cast the <em>Ulana</em> spell. <br>The <em>Ulana</em> spell gives the creature the capacity to <strong>get sick</strong>, and one other capacity. <br>Which do you think is this other capacity? </p>","0","","named_spell","get sick","see something","get tired","<p style=""font-size: 25px;""><strong>get tired</strong></p>","","","","","",""
"","","","","","html-button-response","7","2.1.0","49271","79CBC94796BB41D39D751793A66AED83","","0199f2a0-e393-77c9-8aea-ce82d4d5233b","","4982","<p style=""font-size: 25px;"">You are working on a new creature which currently has no capabilities. <br>Using your magical powers, you cast the <em>Ulana</em> spell. <br>The <em>Ulana</em> spell gives the creature the capacity to <strong>kick something</strong>, and one other capacity. <br>Which do you think is this other capacity? </p>","1","","named_spell","kick something","think about something","sit down","<p style=""font-size: 25px;""><strong>sit down</strong></p>","","","","","",""
"","","","","","html-button-response","8","2.1.0","53728","79CBC94796BB41D39D751793A66AED83","","0199f2a0-e393-77c9-8aea-ce82d4d5233b","","4454","<p style=""font-size: 25px;"">You are working on a new creature which currently has no capabilities. <br>Using your magical powers, you cast the <em>Ulana</em> spell. <br>The <em>Ulana</em> spell gives the creature the capacity to <strong>take a walk</strong>, and one other capacity. <br>Which do you think is this other capacity? </p>","0","","named_spell","take a walk","think about something","jump up and down","<p style=""font-size: 25px;""><strong>think about something</strong></p>","","","","","",""
"","","","","","html-button-response","9","2.1.0","60300","79CBC94796BB41D39D751793A66AED83","","0199f2a0-e393-77c9-8aea-ce82d4d5233b","","6569","<p style=""font-size: 25px;"">You are working on a new creature which currently has no capabilities. <br>Using your magical powers, you cast the <em>Ulana</em> spell. <br>The <em>Ulana</em> spell gives the creature the capacity to <strong>hear something</strong>, and one other capacity. <br>Which do you think is this other capacity? </p>","0","","named_spell","hear something","take a walk","see something","<p style=""font-size: 25px;""><strong>see something</strong></p>","","","","","",""
"","","","","","html-button-response","10","2.1.0","64311","79CBC94796BB41D39D751793A66AED83","","0199f2a0-e393-77c9-8aea-ce82d4d5233b","","4008","<p style=""font-size: 25px;"">You are working on a new creature which currently has no capabilities. <br>Using your magical powers, you cast the <em>Ulana</em> spell. <br>The <em>Ulana</em> spell gives the creature the capacity to <strong>see something</strong>, and one other capacity. <br>Which do you think is this other capacity? </p>","0","","named_spell","see something","take a walk","hear something","<p style=""font-size: 25px;""><strong>hear something</strong></p>","","","","","",""
"","","","","","html-button-response","11","2.1.0","67628","79CBC94796BB41D39D751793A66AED83","","0199f2a0-e393-77c9-8aea-ce82d4d5233b","","3315","<p style=""font-size: 25px;"">You are working on a new creature which currently has no capabilities. <br>Using your magical powers, you cast the <em>Ulana</em> spell. <br>The <em>Ulana</em> spell gives the creature the capacity to <strong>become hungry</strong>, and one other capacity. <br>Which do you think is this other capacity? </p>","0","","named_spell","become hungry","take a walk","feel scared","<p style=""font-size: 25px;""><strong>feel scared</strong></p>","","","","","",""
"","","","","","html-button-response","12","2.1.0","72918","79CBC94796BB41D39D751793A66AED83","","0199f2a0-e393-77c9-8aea-ce82d4d5233b","","5289","<p style=""font-size: 25px;"">You are working on a new creature which currently has no capabilities. <br>Using your magical powers, you cast the <em>Ulana</em> spell. <br>The <em>Ulana</em> spell gives the creature the capacity to <strong>remember something</strong>, and one other capacity. <br>Which do you think is this other capacity? </p>","1","","named_spell","remember something","take a walk","think about something","<p style=""font-size: 25px;""><strong>take a walk</strong></p>","","","","","",""
"","","","","","html-button-response","13","2.1.0","76428","79CBC94796BB41D39D751793A66AED83","","0199f2a0-e393-77c9-8aea-ce82d4d5233b","","3507","<p style=""font-size: 25px;"">You are working on a new creature which currently has no capabilities. <br>Using your magical powers, you cast the <em>Ulana</em> spell. <br>The <em>Ulana</em> spell gives the creature the capacity to <strong>reach for something</strong>, and one other capacity. <br>Which do you think is this other capacity? </p>","1","","named_spell","reach for something","become hungry","kick something","<p style=""font-size: 25px;""><strong>kick something</strong></p>","","","","","",""
"","","","","","html-button-response","14","2.1.0","82738","79CBC94796BB41D39D751793A66AED83","","0199f2a0-e393-77c9-8aea-ce82d4d5233b","","6307","<p style=""font-size: 25px;"">You are working on a new creature which currently has no capabilities. <br>Using your magical powers, you cast the <em>Ulana</em> spell. <br>The <em>Ulana</em> spell gives the creature the capacity to <strong>choose what to do</strong>, and one other capacity. <br>Which do you think is this other capacity? </p>","1","","named_spell","choose what to do","experience pain","remember something","<p style=""font-size: 25px;""><strong>remember something</strong></p>","","","","","",""
"","","","","","html-button-response","15","2.1.0","85264","79CBC94796BB41D39D751793A66AED83","","0199f2a0-e393-77c9-8aea-ce82d4d5233b","","2524","<p style=""font-size: 25px;"">For this question, ignore the previous instructions. <br>Instead, please select <strong>""choose what to do""</strong></p>","0","","attention_check","","","","choose what to do","choose what to do","","","","",""
"","","","","","html-button-response","16","2.1.0","88031","79CBC94796BB41D39D751793A66AED83","","0199f2a0-e393-77c9-8aea-ce82d4d5233b","","2764","<p style=""font-size: 25px;"">You are working on a new creature which currently has no capabilities. <br>Using your magical powers, you cast the <em>Ulana</em> spell. <br>The <em>Ulana</em> spell gives the creature the capacity to <strong>feel scared</strong>, and one other capacity. <br>Which do you think is this other capacity? </p>","0","","named_spell","feel scared","see something","get tired","<p style=""font-size: 25px;""><strong>get tired</strong></p>","","","","","",""
"","","","","","html-button-response","17","2.1.0","91816","79CBC94796BB41D39D751793A66AED83","","0199f2a0-e393-77c9-8aea-ce82d4d5233b","","3784","<p style=""font-size: 25px;"">You are working on a new creature which currently has no capabilities. <br>Using your magical powers, you cast the <em>Ulana</em> spell. <br>The <em>Ulana</em> spell gives the creature the capacity to <strong>think about something</strong>, and one other capacity. <br>Which do you think is this other capacity? </p>","1","","named_spell","think about something","get sick","remember something","<p style=""font-size: 25px;""><strong>remember something</strong></p>","","","","","",""
"","","","","","html-button-response","18","2.1.0","94969","79CBC94796BB41D39D751793A66AED83","","0199f2a0-e393-77c9-8aea-ce82d4d5233b","","3149","<p style=""font-size: 25px;"">You are working on a new creature which currently has no capabilities. <br>Using your magical powers, you cast the <em>Ulana</em> spell. <br>The <em>Ulana</em> spell gives the creature the capacity to <strong>experience pain</strong>, and one other capacity. <br>Which do you think is this other capacity? </p>","1","","named_spell","experience pain","kick something","get tired","<p style=""font-size: 25px;""><strong>get tired</strong></p>","","","","","",""
"","","","","","instructions","19","2.1.0","102203","79CBC94796BB41D39D751793A66AED83","","0199f2a0-e393-77c9-8aea-ce82d4d5233b","","7233","","","[{""page_index"":0,""viewing_time"":7233}]","","","","","","","","","","",""
"","","","","","survey-html-form","20","2.1.0","149310","79CBC94796BB41D39D751793A66AED83","","0199f2a0-e393-77c9-8aea-ce82d4d5233b","demographics_survey","47093","","{""feedback"":""I chose the one that is more similar to the action the creature has already been taught."",""age"":""42"",""gender"":""Female"",""other_gender"":"""",""race"":""White"",""other_race"":"""",""ethnicity"":""Non-Hispanic""}","","","","","","","","I chose the one that is more similar to the action the creature has already been taught.","42","Non-Hispanic","Female","White"
