"success","timeout","failed_images","failed_audio","failed_video","trial_type","trial_index","plugin_version","time_elapsed","mturk_participant_id","mturk_assignment_id","mturk_project_id","trial_id","rt","stimulus","response","view_history","condition","correct_response_attn","selected_choice","itemB","preceding_causal_itemA","preceding_similar_itemA","feedback","age","ethnicity","gender","race"
"true","false","[]","[]","[]","preload","0","2.1.0","6","2A7E2B339E2B4E3C82FA88D0A979CB07","","0199f2a0-e393-77c9-8aea-ce82d4d5233b","","","","","","","","","","","","","","","",""
"","","","","","html-button-response","1","2.1.0","3011","2A7E2B339E2B4E3C82FA88D0A979CB07","","0199f2a0-e393-77c9-8aea-ce82d4d5233b","consent","3004","<p><b>Consent Form</b></p> <div style=""text-align:left;background-color:lightblue; padding:2vw; max-width:80vw;""><p><b>Purpose:</b> This is a study demo; the purpose of the study is to understand how people think about the physical and social world.</p><p><b>Procedures:</b> In this study, you will watch videos, read sentences, or see pictures, and answer simple questions about them. This study should take approximately 4 minutes</p><p><b>Participation:</b> Participation in this study is voluntary. If you decide to join now, you can change your mind later. <p><b>Risks and benefits:</b> There are no risks associated with participating in this study. There are no direct benefits associated with participating in this study. </p><p><b>Use of data by study researchers:</b> The research team led by Shari Liu at JHU will have access to your answers. Researcher contact information:</b> This study is run by Dr. Shari Liu at JHU. If you have any questions or concerns about this study, or in the very unlikely event of a research-related injury, please contact sliu199@jhu.edu. <p> Do you consent to participate? </p>","0","","","","","","","","","","","",""
"","","","","","instructions","2","2.1.0","9489","2A7E2B339E2B4E3C82FA88D0A979CB07","","0199f2a0-e393-77c9-8aea-ce82d4d5233b","","6477","","","[{""page_index"":0,""viewing_time"":6477}]","","","","","","","","","","",""
"","","","","","html-button-response","3","2.1.0","14028","2A7E2B339E2B4E3C82FA88D0A979CB07","","0199f2a0-e393-77c9-8aea-ce82d4d5233b","","4538","<p style=""font-size: 25px;"">For this question, ignore the previous instructions. <br>Instead, please select <strong>""choose what to do""</strong></p>","0","","attention_check","choose what to do","choose what to do","","","","","","","",""
"","","","","","html-button-response","4","2.1.0","24403","2A7E2B339E2B4E3C82FA88D0A979CB07","","0199f2a0-e393-77c9-8aea-ce82d4d5233b","","10374","<p style=""font-size: 25px;"">You are working on a new creature which currently has no capabilities. <br>Using your magical powers, you cast the <em>Ulana</em> spell. <br>The <em>Ulana</em> spell gives the creature the capacity to <strong>hear something</strong>, and one other capacity. <br>Which do you think is this other capacity? </p>","0","","named_spell","","<p style=""font-size: 25px;""><strong>see something</strong></p>","hear something","take a walk","see something","","","","",""
"","","","","","html-button-response","5","2.1.0","32550","2A7E2B339E2B4E3C82FA88D0A979CB07","","0199f2a0-e393-77c9-8aea-ce82d4d5233b","","8146","<p style=""font-size: 25px;"">You are working on a new creature which currently has no capabilities. <br>Using your magical powers, you cast the <em>Ulana</em> spell. <br>The <em>Ulana</em> spell gives the creature the capacity to <strong>choose what to do</strong>, and one other capacity. <br>Which do you think is this other capacity? </p>","0","","named_spell","","<p style=""font-size: 25px;""><strong>remember something</strong></p>","choose what to do","experience pain","remember something","","","","",""
"","","","","","html-button-response","6","2.1.0","37825","2A7E2B339E2B4E3C82FA88D0A979CB07","","0199f2a0-e393-77c9-8aea-ce82d4d5233b","","5274","<p style=""font-size: 25px;"">You are working on a new creature which currently has no capabilities. <br>Using your magical powers, you cast the <em>Ulana</em> spell. <br>The <em>Ulana</em> spell gives the creature the capacity to <strong>remember something</strong>, and one other capacity. <br>Which do you think is this other capacity? </p>","1","","named_spell","","<p style=""font-size: 25px;""><strong>think about something</strong></p>","remember something","take a walk","think about something","","","","",""
"","","","","","html-button-response","7","2.1.0","41515","2A7E2B339E2B4E3C82FA88D0A979CB07","","0199f2a0-e393-77c9-8aea-ce82d4d5233b","","3689","<p style=""font-size: 25px;"">You are working on a new creature which currently has no capabilities. <br>Using your magical powers, you cast the <em>Ulana</em> spell. <br>The <em>Ulana</em> spell gives the creature the capacity to <strong>reach for something</strong>, and one other capacity. <br>Which do you think is this other capacity? </p>","0","","named_spell","","<p style=""font-size: 25px;""><strong>kick something</strong></p>","reach for something","become hungry","kick something","","","","",""
"","","","","","html-button-response","8","2.1.0","48586","2A7E2B339E2B4E3C82FA88D0A979CB07","","0199f2a0-e393-77c9-8aea-ce82d4d5233b","","7070","<p style=""font-size: 25px;"">You are working on a new creature which currently has no capabilities. <br>Using your magical powers, you cast the <em>Ulana</em> spell. <br>The <em>Ulana</em> spell gives the creature the capacity to <strong>feel scared</strong>, and one other capacity. <br>Which do you think is this other capacity? </p>","1","","named_spell","","<p style=""font-size: 25px;""><strong>get tired</strong></p>","feel scared","see something","get tired","","","","",""
"","","","","","html-button-response","9","2.1.0","51409","2A7E2B339E2B4E3C82FA88D0A979CB07","","0199f2a0-e393-77c9-8aea-ce82d4d5233b","","2822","<p style=""font-size: 25px;"">You are working on a new creature which currently has no capabilities. <br>Using your magical powers, you cast the <em>Ulana</em> spell. <br>The <em>Ulana</em> spell gives the creature the capacity to <strong>kick something</strong>, and one other capacity. <br>Which do you think is this other capacity? </p>","1","","named_spell","","<p style=""font-size: 25px;""><strong>sit down</strong></p>","kick something","think about something","sit down","","","","",""
"","","","","","html-button-response","10","2.1.0","54140","2A7E2B339E2B4E3C82FA88D0A979CB07","","0199f2a0-e393-77c9-8aea-ce82d4d5233b","","2730","<p style=""font-size: 25px;"">You are working on a new creature which currently has no capabilities. <br>Using your magical powers, you cast the <em>Ulana</em> spell. <br>The <em>Ulana</em> spell gives the creature the capacity to <strong>become hungry</strong>, and one other capacity. <br>Which do you think is this other capacity? </p>","0","","named_spell","","<p style=""font-size: 25px;""><strong>feel scared</strong></p>","become hungry","take a walk","feel scared","","","","",""
"","","","","","html-button-response","11","2.1.0","58138","2A7E2B339E2B4E3C82FA88D0A979CB07","","0199f2a0-e393-77c9-8aea-ce82d4d5233b","","3997","<p style=""font-size: 25px;"">You are working on a new creature which currently has no capabilities. <br>Using your magical powers, you cast the <em>Ulana</em> spell. <br>The <em>Ulana</em> spell gives the creature the capacity to <strong>jump up and down</strong>, and one other capacity. <br>Which do you think is this other capacity? </p>","0","","named_spell","","<p style=""font-size: 25px;""><strong>sit down</strong></p>","jump up and down","see something","sit down","","","","",""
"","","","","","html-button-response","12","2.1.0","61145","2A7E2B339E2B4E3C82FA88D0A979CB07","","0199f2a0-e393-77c9-8aea-ce82d4d5233b","","3006","<p style=""font-size: 25px;"">You are working on a new creature which currently has no capabilities. <br>Using your magical powers, you cast the <em>Ulana</em> spell. <br>The <em>Ulana</em> spell gives the creature the capacity to <strong>think about something</strong>, and one other capacity. <br>Which do you think is this other capacity? </p>","0","","named_spell","","<p style=""font-size: 25px;""><strong>remember something</strong></p>","think about something","get sick","remember something","","","","",""
"","","","","","html-button-response","13","2.1.0","65500","2A7E2B339E2B4E3C82FA88D0A979CB07","","0199f2a0-e393-77c9-8aea-ce82d4d5233b","","4354","<p style=""font-size: 25px;"">You are working on a new creature which currently has no capabilities. <br>Using your magical powers, you cast the <em>Ulana</em> spell. <br>The <em>Ulana</em> spell gives the creature the capacity to <strong>sit down</strong>, and one other capacity. <br>Which do you think is this other capacity? </p>","0","","named_spell","","<p style=""font-size: 25px;""><strong>jump up and down</strong></p>","sit down","experience pain","jump up and down","","","","",""
"","","","","","html-button-response","14","2.1.0","68136","2A7E2B339E2B4E3C82FA88D0A979CB07","","0199f2a0-e393-77c9-8aea-ce82d4d5233b","","2635","<p style=""font-size: 25px;"">You are working on a new creature which currently has no capabilities. <br>Using your magical powers, you cast the <em>Ulana</em> spell. <br>The <em>Ulana</em> spell gives the creature the capacity to <strong>get sick</strong>, and one other capacity. <br>Which do you think is this other capacity? </p>","1","","named_spell","","<p style=""font-size: 25px;""><strong>get tired</strong></p>","get sick","see something","get tired","","","","",""
"","","","","","html-button-response","15","2.1.0","74555","2A7E2B339E2B4E3C82FA88D0A979CB07","","0199f2a0-e393-77c9-8aea-ce82d4d5233b","","6418","<p style=""font-size: 25px;"">You are working on a new creature which currently has no capabilities. <br>Using your magical powers, you cast the <em>Ulana</em> spell. <br>The <em>Ulana</em> spell gives the creature the capacity to <strong>take a walk</strong>, and one other capacity. <br>Which do you think is this other capacity? </p>","1","","named_spell","","<p style=""font-size: 25px;""><strong>jump up and down</strong></p>","take a walk","think about something","jump up and down","","","","",""
"","","","","","html-button-response","16","2.1.0","76619","2A7E2B339E2B4E3C82FA88D0A979CB07","","0199f2a0-e393-77c9-8aea-ce82d4d5233b","","2063","<p style=""font-size: 25px;"">You are working on a new creature which currently has no capabilities. <br>Using your magical powers, you cast the <em>Ulana</em> spell. <br>The <em>Ulana</em> spell gives the creature the capacity to <strong>get tired</strong>, and one other capacity. <br>Which do you think is this other capacity? </p>","0","","named_spell","","<p style=""font-size: 25px;""><strong>feel scared</strong></p>","get tired","jump up and down","feel scared","","","","",""
"","","","","","html-button-response","17","2.1.0","80129","2A7E2B339E2B4E3C82FA88D0A979CB07","","0199f2a0-e393-77c9-8aea-ce82d4d5233b","","3509","<p style=""font-size: 25px;"">You are working on a new creature which currently has no capabilities. <br>Using your magical powers, you cast the <em>Ulana</em> spell. <br>The <em>Ulana</em> spell gives the creature the capacity to <strong>see something</strong>, and one other capacity. <br>Which do you think is this other capacity? </p>","0","","named_spell","","<p style=""font-size: 25px;""><strong>hear something</strong></p>","see something","take a walk","hear something","","","","",""
"","","","","","html-button-response","18","2.1.0","82159","2A7E2B339E2B4E3C82FA88D0A979CB07","","0199f2a0-e393-77c9-8aea-ce82d4d5233b","","2029","<p style=""font-size: 25px;"">You are working on a new creature which currently has no capabilities. <br>Using your magical powers, you cast the <em>Ulana</em> spell. <br>The <em>Ulana</em> spell gives the creature the capacity to <strong>experience pain</strong>, and one other capacity. <br>Which do you think is this other capacity? </p>","1","","named_spell","","<p style=""font-size: 25px;""><strong>get tired</strong></p>","experience pain","kick something","get tired","","","","",""
"","","","","","instructions","19","2.1.0","121698","2A7E2B339E2B4E3C82FA88D0A979CB07","","0199f2a0-e393-77c9-8aea-ce82d4d5233b","","39538","","","[{""page_index"":0,""viewing_time"":39538}]","","","","","","","","","","",""
"","","","","","survey-html-form","20","2.1.0","183855","2A7E2B339E2B4E3C82FA88D0A979CB07","","0199f2a0-e393-77c9-8aea-ce82d4d5233b","demographics_survey","62156","","{""feedback"":""Mainly what made the most sense and most useful"",""age"":""38"",""gender"":""Female"",""other_gender"":"""",""race"":""White"",""other_race"":"""",""ethnicity"":""Non-Hispanic""}","","","","","","","","Mainly what made the most sense and most useful","38","Non-Hispanic","Female","White"
