"success","timeout","failed_images","failed_audio","failed_video","trial_type","trial_index","plugin_version","time_elapsed","mturk_participant_id","mturk_assignment_id","mturk_project_id","trial_id","rt","stimulus","response","view_history","condition","correct_response_attn","selected_choice","itemB","preceding_causal_itemA","preceding_similar_itemA","feedback","age","ethnicity","gender","race"
"true","false","[]","[]","[]","preload","0","2.1.0","8","F2B1488FD02E4FB1A36B6744B704B08C","","0199f2a0-e393-77c9-8aea-ce82d4d5233b","","","","","","","","","","","","","","","",""
"","","","","","html-button-response","1","2.1.0","11118","F2B1488FD02E4FB1A36B6744B704B08C","","0199f2a0-e393-77c9-8aea-ce82d4d5233b","consent","11108","<p><b>Consent Form</b></p> <div style=""text-align:left;background-color:lightblue; padding:2vw; max-width:80vw;""><p><b>Purpose:</b> This is a study demo; the purpose of the study is to understand how people think about the physical and social world.</p><p><b>Procedures:</b> In this study, you will watch videos, read sentences, or see pictures, and answer simple questions about them. This study should take approximately 4 minutes</p><p><b>Participation:</b> Participation in this study is voluntary. If you decide to join now, you can change your mind later. <p><b>Risks and benefits:</b> There are no risks associated with participating in this study. There are no direct benefits associated with participating in this study. </p><p><b>Use of data by study researchers:</b> The research team led by Shari Liu at JHU will have access to your answers. Researcher contact information:</b> This study is run by Dr. Shari Liu at JHU. If you have any questions or concerns about this study, or in the very unlikely event of a research-related injury, please contact sliu199@jhu.edu. <p> Do you consent to participate? </p>","0","","","","","","","","","","","",""
"","","","","","instructions","2","2.1.0","32841","F2B1488FD02E4FB1A36B6744B704B08C","","0199f2a0-e393-77c9-8aea-ce82d4d5233b","","21722","","","[{""page_index"":0,""viewing_time"":21722}]","","","","","","","","","","",""
"","","","","","html-button-response","3","2.1.0","41723","F2B1488FD02E4FB1A36B6744B704B08C","","0199f2a0-e393-77c9-8aea-ce82d4d5233b","","8881","<p style=""font-size: 25px;"">For this question, ignore the previous instructions. <br>Instead, please select <strong>""choose what to do""</strong></p>","0","","attention_check","choose what to do","choose what to do","","","","","","","",""
"","","","","","html-button-response","4","2.1.0","72902","F2B1488FD02E4FB1A36B6744B704B08C","","0199f2a0-e393-77c9-8aea-ce82d4d5233b","","31178","<p style=""font-size: 25px;"">You are working on a new creature which currently has no capabilities. <br>Using your magical powers, you cast the <em>Ulana</em> spell. <br>The <em>Ulana</em> spell gives the creature the capacity to <strong>jump up and down</strong>, and one other capacity. <br>Which do you think is this other capacity? </p>","0","","named_spell","","<p style=""font-size: 25px;""><strong>sit down</strong></p>","jump up and down","see something","sit down","","","","",""
"","","","","","html-button-response","5","2.1.0","99582","F2B1488FD02E4FB1A36B6744B704B08C","","0199f2a0-e393-77c9-8aea-ce82d4d5233b","","26679","<p style=""font-size: 25px;"">You are working on a new creature which currently has no capabilities. <br>Using your magical powers, you cast the <em>Ulana</em> spell. <br>The <em>Ulana</em> spell gives the creature the capacity to <strong>sit down</strong>, and one other capacity. <br>Which do you think is this other capacity? </p>","1","","named_spell","","<p style=""font-size: 25px;""><strong>jump up and down</strong></p>","sit down","experience pain","jump up and down","","","","",""
"","","","","","html-button-response","6","2.1.0","121945","F2B1488FD02E4FB1A36B6744B704B08C","","0199f2a0-e393-77c9-8aea-ce82d4d5233b","","22361","<p style=""font-size: 25px;"">You are working on a new creature which currently has no capabilities. <br>Using your magical powers, you cast the <em>Ulana</em> spell. <br>The <em>Ulana</em> spell gives the creature the capacity to <strong>experience pain</strong>, and one other capacity. <br>Which do you think is this other capacity? </p>","0","","named_spell","","<p style=""font-size: 25px;""><strong>get tired</strong></p>","experience pain","kick something","get tired","","","","",""
"","","","","","html-button-response","7","2.1.0","138922","F2B1488FD02E4FB1A36B6744B704B08C","","0199f2a0-e393-77c9-8aea-ce82d4d5233b","","16977","<p style=""font-size: 25px;"">You are working on a new creature which currently has no capabilities. <br>Using your magical powers, you cast the <em>Ulana</em> spell. <br>The <em>Ulana</em> spell gives the creature the capacity to <strong>kick something</strong>, and one other capacity. <br>Which do you think is this other capacity? </p>","0","","named_spell","","<p style=""font-size: 25px;""><strong>think about something</strong></p>","kick something","think about something","sit down","","","","",""
"","","","","","html-button-response","8","2.1.0","158465","F2B1488FD02E4FB1A36B6744B704B08C","","0199f2a0-e393-77c9-8aea-ce82d4d5233b","","19541","<p style=""font-size: 25px;"">You are working on a new creature which currently has no capabilities. <br>Using your magical powers, you cast the <em>Ulana</em> spell. <br>The <em>Ulana</em> spell gives the creature the capacity to <strong>choose what to do</strong>, and one other capacity. <br>Which do you think is this other capacity? </p>","1","","named_spell","","<p style=""font-size: 25px;""><strong>remember something</strong></p>","choose what to do","experience pain","remember something","","","","",""
"","","","","","html-button-response","9","2.1.0","174549","F2B1488FD02E4FB1A36B6744B704B08C","","0199f2a0-e393-77c9-8aea-ce82d4d5233b","","16083","<p style=""font-size: 25px;"">You are working on a new creature which currently has no capabilities. <br>Using your magical powers, you cast the <em>Ulana</em> spell. <br>The <em>Ulana</em> spell gives the creature the capacity to <strong>reach for something</strong>, and one other capacity. <br>Which do you think is this other capacity? </p>","0","","named_spell","","<p style=""font-size: 25px;""><strong>become hungry</strong></p>","reach for something","become hungry","kick something","","","","",""
"","","","","","html-button-response","10","2.1.0","183975","F2B1488FD02E4FB1A36B6744B704B08C","","0199f2a0-e393-77c9-8aea-ce82d4d5233b","","9424","<p style=""font-size: 25px;"">You are working on a new creature which currently has no capabilities. <br>Using your magical powers, you cast the <em>Ulana</em> spell. <br>The <em>Ulana</em> spell gives the creature the capacity to <strong>think about something</strong>, and one other capacity. <br>Which do you think is this other capacity? </p>","0","","named_spell","","<p style=""font-size: 25px;""><strong>remember something</strong></p>","think about something","get sick","remember something","","","","",""
"","","","","","html-button-response","11","2.1.0","193334","F2B1488FD02E4FB1A36B6744B704B08C","","0199f2a0-e393-77c9-8aea-ce82d4d5233b","","9358","<p style=""font-size: 25px;"">You are working on a new creature which currently has no capabilities. <br>Using your magical powers, you cast the <em>Ulana</em> spell. <br>The <em>Ulana</em> spell gives the creature the capacity to <strong>hear something</strong>, and one other capacity. <br>Which do you think is this other capacity? </p>","0","","named_spell","","<p style=""font-size: 25px;""><strong>see something</strong></p>","hear something","take a walk","see something","","","","",""
"","","","","","html-button-response","12","2.1.0","200454","F2B1488FD02E4FB1A36B6744B704B08C","","0199f2a0-e393-77c9-8aea-ce82d4d5233b","","7119","<p style=""font-size: 25px;"">You are working on a new creature which currently has no capabilities. <br>Using your magical powers, you cast the <em>Ulana</em> spell. <br>The <em>Ulana</em> spell gives the creature the capacity to <strong>take a walk</strong>, and one other capacity. <br>Which do you think is this other capacity? </p>","0","","named_spell","","<p style=""font-size: 25px;""><strong>think about something</strong></p>","take a walk","think about something","jump up and down","","","","",""
"","","","","","html-button-response","13","2.1.0","206010","F2B1488FD02E4FB1A36B6744B704B08C","","0199f2a0-e393-77c9-8aea-ce82d4d5233b","","5554","<p style=""font-size: 25px;"">You are working on a new creature which currently has no capabilities. <br>Using your magical powers, you cast the <em>Ulana</em> spell. <br>The <em>Ulana</em> spell gives the creature the capacity to <strong>feel scared</strong>, and one other capacity. <br>Which do you think is this other capacity? </p>","1","","named_spell","","<p style=""font-size: 25px;""><strong>get tired</strong></p>","feel scared","see something","get tired","","","","",""
"","","","","","html-button-response","14","2.1.0","213067","F2B1488FD02E4FB1A36B6744B704B08C","","0199f2a0-e393-77c9-8aea-ce82d4d5233b","","7056","<p style=""font-size: 25px;"">You are working on a new creature which currently has no capabilities. <br>Using your magical powers, you cast the <em>Ulana</em> spell. <br>The <em>Ulana</em> spell gives the creature the capacity to <strong>remember something</strong>, and one other capacity. <br>Which do you think is this other capacity? </p>","1","","named_spell","","<p style=""font-size: 25px;""><strong>take a walk</strong></p>","remember something","take a walk","think about something","","","","",""
"","","","","","html-button-response","15","2.1.0","221020","F2B1488FD02E4FB1A36B6744B704B08C","","0199f2a0-e393-77c9-8aea-ce82d4d5233b","","7952","<p style=""font-size: 25px;"">You are working on a new creature which currently has no capabilities. <br>Using your magical powers, you cast the <em>Ulana</em> spell. <br>The <em>Ulana</em> spell gives the creature the capacity to <strong>get tired</strong>, and one other capacity. <br>Which do you think is this other capacity? </p>","1","","named_spell","","<p style=""font-size: 25px;""><strong>jump up and down</strong></p>","get tired","jump up and down","feel scared","","","","",""
"","","","","","html-button-response","16","2.1.0","227176","F2B1488FD02E4FB1A36B6744B704B08C","","0199f2a0-e393-77c9-8aea-ce82d4d5233b","","6155","<p style=""font-size: 25px;"">You are working on a new creature which currently has no capabilities. <br>Using your magical powers, you cast the <em>Ulana</em> spell. <br>The <em>Ulana</em> spell gives the creature the capacity to <strong>get sick</strong>, and one other capacity. <br>Which do you think is this other capacity? </p>","0","","named_spell","","<p style=""font-size: 25px;""><strong>see something</strong></p>","get sick","see something","get tired","","","","",""
"","","","","","html-button-response","17","2.1.0","234803","F2B1488FD02E4FB1A36B6744B704B08C","","0199f2a0-e393-77c9-8aea-ce82d4d5233b","","7625","<p style=""font-size: 25px;"">You are working on a new creature which currently has no capabilities. <br>Using your magical powers, you cast the <em>Ulana</em> spell. <br>The <em>Ulana</em> spell gives the creature the capacity to <strong>see something</strong>, and one other capacity. <br>Which do you think is this other capacity? </p>","0","","named_spell","","<p style=""font-size: 25px;""><strong>hear something</strong></p>","see something","take a walk","hear something","","","","",""
"","","","","","html-button-response","18","2.1.0","239666","F2B1488FD02E4FB1A36B6744B704B08C","","0199f2a0-e393-77c9-8aea-ce82d4d5233b","","4862","<p style=""font-size: 25px;"">You are working on a new creature which currently has no capabilities. <br>Using your magical powers, you cast the <em>Ulana</em> spell. <br>The <em>Ulana</em> spell gives the creature the capacity to <strong>become hungry</strong>, and one other capacity. <br>Which do you think is this other capacity? </p>","1","","named_spell","","<p style=""font-size: 25px;""><strong>feel scared</strong></p>","become hungry","take a walk","feel scared","","","","",""
"","","","","","instructions","19","2.1.0","268429","F2B1488FD02E4FB1A36B6744B704B08C","","0199f2a0-e393-77c9-8aea-ce82d4d5233b","","28763","","","[{""page_index"":0,""viewing_time"":28763}]","","","","","","","","","","",""
"","","","","","survey-html-form","20","2.1.0","295539","F2B1488FD02E4FB1A36B6744B704B08C","","0199f2a0-e393-77c9-8aea-ce82d4d5233b","demographics_survey","27107","","{""feedback"":""N/A"",""age"":""41"",""gender"":""Male"",""other_gender"":"""",""race"":""Black/African American"",""other_race"":"""",""ethnicity"":""Non-Hispanic""}","","","","","","","","N/A","41","Non-Hispanic","Male","Black/African American"
