"success","timeout","failed_images","failed_audio","failed_video","trial_type","trial_index","plugin_version","time_elapsed","mturk_participant_id","mturk_assignment_id","mturk_project_id","trial_id","rt","stimulus","response","view_history","condition","itemB","similar_itemA","slider_start","response_value","causal_itemA","attn_response","attn_correct","feedback","age","ethnicity","gender","race"
"true","false","[]","[]","[]","preload","0","2.1.0","10","9BA3C045770B4FD8ACEDC19F54B0D244","0198e2e6-af62-76ad-812a-16bb641a54e6","0198e2d6-5c2e-73f5-8451-25a6796d814f","","","","","","","","","","","","","","","","","",""
"","","","","","html-button-response","1","2.1.0","8538","9BA3C045770B4FD8ACEDC19F54B0D244","0198e2e6-af62-76ad-812a-16bb641a54e6","0198e2d6-5c2e-73f5-8451-25a6796d814f","consent","8525","<p><b>Consent Form</b></p> <div style=""text-align:left;background-color:lightblue; padding:2vw; max-width:80vw;""><p><b>Purpose:</b> The purpose of this study is to understand how people think about the physical and social world.</p><p><b>Procedures:</b> In this study, you will watch videos, read sentences, or see pictures, and answer simple questions about them. This study should take approximately 8 minutes</p><p><b>Participation:</b> Participation in this study is voluntary. If you decide to join now, you can change your mind later. </p><p><b>Payment:</b> You will be paid $15.00/hour for participating in this study. Given the estimated duration of 8 minutes, your payment will amount to $2.</p><p><b>Risks and benefits:</b> There are no risks associated with participating in this study. There are no direct benefits associated with participating in this study. </p><p><b>Use of data by study researchers:</b> The research team led by Shari Liu at JHU will have access to your answers. </p><p><b>Publication of results:</b> The results of the research may be presented at scientific meetings or published in scientific journals. Your individual responses may be published. We will never publish your name, the date that you participated, and any other information that could be used to identify you. </p><p><b>Researcher contact information:</b> This study is run by Dr. Shari Liu at JHU. If you have any questions or concerns about this study, or in the very unlikely event of a research-related injury, please contact sliu199@jhu.edu. </p><p><b>Research rights information:</b> If you have questions about your rights as a research participant or feel that you have not been treated fairly, please call the Homewood Institutional Review Board at Johns Hopkins University at (410) 516-6580. If you have any questions or issues completing the survey, please email Shari Liu at sliu199@jhu.edu. </p> </div><p> Do you consent to participate? </p>","0","","","","","","","","","","","","","",""
"","","","","","instructions","2","2.1.0","20673","9BA3C045770B4FD8ACEDC19F54B0D244","0198e2e6-af62-76ad-812a-16bb641a54e6","0198e2d6-5c2e-73f5-8451-25a6796d814f","","12134","","","[{""page_index"":0,""viewing_time"":12134}]","","","","","","","","","","","","",""
"","","","","","html-slider-response","3","2.1.0","33129","9BA3C045770B4FD8ACEDC19F54B0D244","0198e2e6-af62-76ad-812a-16bb641a54e6","0198e2d6-5c2e-73f5-8451-25a6796d814f","","12454","<p style=""font-size: 25px;"">A person <strong>sat down</strong>, then they <strong>took a walk</strong>.</p> 
               <p style=""font-size: 25px;"">Suppose that they didn't <strong>sit down</strong>. <br>Would they still have <strong>taken the same walk</strong>?</p>","90","","similarity","take a walk","sit down","50","90","","","","","","","",""
"","","","","","html-slider-response","4","2.1.0","39224","9BA3C045770B4FD8ACEDC19F54B0D244","0198e2e6-af62-76ad-812a-16bb641a54e6","0198e2d6-5c2e-73f5-8451-25a6796d814f","","6094","<p style=""font-size: 25px;"">A person <strong>heard something</strong>, then they <strong>saw something</strong>.</p> 
               <p style=""font-size: 25px;"">Suppose that they didn't <strong>hear something</strong>. <br>Would they still have <strong>seen the same thing</strong>?</p>","75","","similarity","see something","hear something","50","75","","","","","","","",""
"","","","","","html-slider-response","5","2.1.0","47976","9BA3C045770B4FD8ACEDC19F54B0D244","0198e2e6-af62-76ad-812a-16bb641a54e6","0198e2d6-5c2e-73f5-8451-25a6796d814f","","8751","<p style=""font-size: 25px;"">A person <strong>remembered something</strong>, then they <strong>thought about something</strong>.</p> 
               <p style=""font-size: 25px;"">Suppose that they didn't <strong>remember something</strong>. <br>Would they still have <strong>thought the same thing</strong>?</p>","51","","similarity","think about something","remember something","50","51","","","","","","","",""
"","","","","","html-slider-response","6","2.1.0","54768","9BA3C045770B4FD8ACEDC19F54B0D244","0198e2e6-af62-76ad-812a-16bb641a54e6","0198e2d6-5c2e-73f5-8451-25a6796d814f","","6791","<p style=""font-size: 25px;"">A person <strong>saw something</strong>, then they <strong>got sick</strong>.</p> 
               <p style=""font-size: 25px;"">Suppose that they didn't <strong>see something</strong>. <br>Would they still have <strong>gotten sick in the same way</strong>?</p>","88","","counterfactual","get tired","","50","88","jump up and down","","","","","","",""
"","","","","","html-slider-response","7","2.1.0","61224","9BA3C045770B4FD8ACEDC19F54B0D244","0198e2e6-af62-76ad-812a-16bb641a54e6","0198e2d6-5c2e-73f5-8451-25a6796d814f","","6455","<p style=""font-size: 25px;"">A person <strong>felt scared</strong>, then they <strong>got tired</strong>.</p> 
               <p style=""font-size: 25px;"">Suppose that they didn't <strong>feel scared</strong>. <br>Would they still have <strong>gotten tired all the same</strong>?</p>","83","","similarity","get tired","feel scared","50","83","","","","","","","",""
"","","","","","html-slider-response","8","2.1.0","67473","9BA3C045770B4FD8ACEDC19F54B0D244","0198e2e6-af62-76ad-812a-16bb641a54e6","0198e2d6-5c2e-73f5-8451-25a6796d814f","","6248","<p style=""font-size: 25px;"">A person <strong>jumped up and down</strong>, then they <strong>got tired</strong>.</p>
             <p style=""font-size: 25px;"">For this question, please select <strong>""definitely not""</strong></p>","0","","attention_check_counterfactual","","","50","","","0","yes","","","","",""
"","","","","","html-slider-response","9","2.1.0","81720","9BA3C045770B4FD8ACEDC19F54B0D244","0198e2e6-af62-76ad-812a-16bb641a54e6","0198e2d6-5c2e-73f5-8451-25a6796d814f","","14246","<p style=""font-size: 25px;"">A person <strong>got tired</strong>, then they <strong>got sick</strong>.</p> 
               <p style=""font-size: 25px;"">Suppose that they didn't <strong>get tired</strong>. <br>Would they still have <strong>gotten sick in the same way</strong>?</p>","24","","similarity","get sick","get tired","50","24","","","","","","","",""
"","","","","","html-slider-response","10","2.1.0","87089","9BA3C045770B4FD8ACEDC19F54B0D244","0198e2e6-af62-76ad-812a-16bb641a54e6","0198e2d6-5c2e-73f5-8451-25a6796d814f","","5368","<p style=""font-size: 25px;"">A person <strong>took a walk</strong>, then they <strong>heard something</strong>.</p> 
               <p style=""font-size: 25px;"">Suppose that they didn't <strong>take a walk</strong>. <br>Would they still have <strong>heard the same thing</strong>?</p>","13","","counterfactual","kick something","","50","13","think about something","","","","","","",""
"","","","","","html-slider-response","11","2.1.0","93400","9BA3C045770B4FD8ACEDC19F54B0D244","0198e2e6-af62-76ad-812a-16bb641a54e6","0198e2d6-5c2e-73f5-8451-25a6796d814f","","6310","<p style=""font-size: 25px;"">A person <strong>felt scared</strong>, then they <strong>became hungry</strong>.</p> 
               <p style=""font-size: 25px;"">Suppose that they didn't <strong>feel scared</strong>. <br>Would they still have <strong>become hungry all the same</strong>?</p>","49","","similarity","become hungry","feel scared","50","49","","","","","","","",""
"","","","","","html-slider-response","12","2.1.0","98656","9BA3C045770B4FD8ACEDC19F54B0D244","0198e2e6-af62-76ad-812a-16bb641a54e6","0198e2d6-5c2e-73f5-8451-25a6796d814f","","5256","<p style=""font-size: 25px;"">A person <strong>experienced pain</strong>, then they <strong>chose what to do</strong>.</p> 
               <p style=""font-size: 25px;"">Suppose that they didn't <strong>experience pain</strong>. <br>Would they still have <strong>chosen to do the same thing</strong>?</p>","3","","counterfactual","hear something","","50","3","take a walk","","","","","","",""
"","","","","","html-slider-response","13","2.1.0","106472","9BA3C045770B4FD8ACEDC19F54B0D244","0198e2e6-af62-76ad-812a-16bb641a54e6","0198e2d6-5c2e-73f5-8451-25a6796d814f","","7815","<p style=""font-size: 25px;"">A person <strong>saw something</strong>, then they <strong>felt scared</strong>.</p> 
               <p style=""font-size: 25px;"">Suppose that they didn't <strong>see something</strong>. <br>Would they still have <strong>felt scared all the same</strong>?</p>","24","","counterfactual","get sick","","50","24","see something","","","","","","",""
"","","","","","html-slider-response","14","2.1.0","111824","9BA3C045770B4FD8ACEDC19F54B0D244","0198e2e6-af62-76ad-812a-16bb641a54e6","0198e2d6-5c2e-73f5-8451-25a6796d814f","","5352","<p style=""font-size: 25px;"">A person <strong>jumped up and down</strong>, then they <strong>got tired</strong>.</p> 
               <p style=""font-size: 25px;"">Suppose that they didn't <strong>jump up and down</strong>. <br>Would they still have <strong>gotten tired all the same</strong>?</p>","23","","counterfactual","take a walk","","50","23","think about something","","","","","","",""
"","","","","","html-slider-response","15","2.1.0","116879","9BA3C045770B4FD8ACEDC19F54B0D244","0198e2e6-af62-76ad-812a-16bb641a54e6","0198e2d6-5c2e-73f5-8451-25a6796d814f","","5054","<p style=""font-size: 25px;"">A person <strong>sat down</strong>, then they <strong>kicked something</strong>.</p> 
               <p style=""font-size: 25px;"">Suppose that they didn't <strong>sit down</strong>. <br>Would they still have <strong>kicked the same thing</strong>?</p>","50","","similarity","kick something","sit down","50","50","","","","","","","",""
"","","","","","html-slider-response","16","2.1.0","122928","9BA3C045770B4FD8ACEDC19F54B0D244","0198e2e6-af62-76ad-812a-16bb641a54e6","0198e2d6-5c2e-73f5-8451-25a6796d814f","","6048","<p style=""font-size: 25px;"">A person <strong>got tired</strong>, then they <strong>experienced pain</strong>.</p> 
               <p style=""font-size: 25px;"">Suppose that they didn't <strong>get tired</strong>. <br>Would they still have <strong>experienced the same pain</strong>?</p>","50","","similarity","experience pain","get tired","50","50","","","","","","","",""
"","","","","","html-slider-response","17","2.1.0","127607","9BA3C045770B4FD8ACEDC19F54B0D244","0198e2e6-af62-76ad-812a-16bb641a54e6","0198e2d6-5c2e-73f5-8451-25a6796d814f","","4678","<p style=""font-size: 25px;"">A person <strong>got tired</strong>, then they <strong>felt scared</strong>.</p> 
               <p style=""font-size: 25px;"">Suppose that they didn't <strong>get tired</strong>. <br>Would they still have <strong>felt scared all the same</strong>?</p>","65","","similarity","feel scared","get tired","50","65","","","","","","","",""
"","","","","","html-slider-response","18","2.1.0","132543","9BA3C045770B4FD8ACEDC19F54B0D244","0198e2e6-af62-76ad-812a-16bb641a54e6","0198e2d6-5c2e-73f5-8451-25a6796d814f","","4935","<p style=""font-size: 25px;"">A person <strong>sat down</strong>, then they <strong>jumped up and down</strong>.</p> 
               <p style=""font-size: 25px;"">Suppose that they didn't <strong>sit down</strong>. <br>Would they still have <strong>jumped up and down</strong>?</p>","50","","similarity","jump up and down","sit down","50","50","","","","","","","",""
"","","","","","html-slider-response","19","2.1.0","138015","9BA3C045770B4FD8ACEDC19F54B0D244","0198e2e6-af62-76ad-812a-16bb641a54e6","0198e2d6-5c2e-73f5-8451-25a6796d814f","","5472","<p style=""font-size: 25px;"">A person <strong>became hungry</strong>, then they <strong>reached for something</strong>.</p> 
               <p style=""font-size: 25px;"">Suppose that they didn't <strong>become hungry</strong>. <br>Would they still have <strong>reached for the same thing</strong>?</p>","12","","counterfactual","sit down","","50","12","experience pain","","","","","","",""
"","","","","","html-slider-response","20","2.1.0","142728","9BA3C045770B4FD8ACEDC19F54B0D244","0198e2e6-af62-76ad-812a-16bb641a54e6","0198e2d6-5c2e-73f5-8451-25a6796d814f","","4712","<p style=""font-size: 25px;"">A person <strong>took a walk</strong>, then they <strong>saw something</strong>.</p> 
               <p style=""font-size: 25px;"">Suppose that they didn't <strong>take a walk</strong>. <br>Would they still have <strong>seen the same thing</strong>?</p>","5","","counterfactual","think about something","","50","5","get sick","","","","","","",""
"","","","","","html-slider-response","21","2.1.0","146943","9BA3C045770B4FD8ACEDC19F54B0D244","0198e2e6-af62-76ad-812a-16bb641a54e6","0198e2d6-5c2e-73f5-8451-25a6796d814f","","4215","<p style=""font-size: 25px;"">A person <strong>kicked something</strong>, then they <strong>experienced pain</strong>.</p> 
               <p style=""font-size: 25px;"">Suppose that they didn't <strong>kick something</strong>. <br>Would they still have <strong>experienced the same pain</strong>?</p>","26","","counterfactual","feel scared","","50","26","see something","","","","","","",""
"","","","","","html-slider-response","22","2.1.0","151616","9BA3C045770B4FD8ACEDC19F54B0D244","0198e2e6-af62-76ad-812a-16bb641a54e6","0198e2d6-5c2e-73f5-8451-25a6796d814f","","4672","<p style=""font-size: 25px;"">A person <strong>remembered something</strong>, then they <strong>chose what to do</strong>.</p> 
               <p style=""font-size: 25px;"">Suppose that they didn't <strong>remember something</strong>. <br>Would they still have <strong>chosen to do the same thing</strong>?</p>","16","","similarity","choose what to do","remember something","50","16","","","","","","","",""
"","","","","","html-slider-response","23","2.1.0","157920","9BA3C045770B4FD8ACEDC19F54B0D244","0198e2e6-af62-76ad-812a-16bb641a54e6","0198e2d6-5c2e-73f5-8451-25a6796d814f","","6303","<p style=""font-size: 25px;"">A person <strong>saw something</strong>, then they <strong>jumped up and down</strong>.</p> 
               <p style=""font-size: 25px;"">Suppose that they didn't <strong>see something</strong>. <br>Would they still have <strong>jumped up and down</strong>?</p>","51","","counterfactual","see something","","50","51","take a walk","","","","","","",""
"","","","","","html-slider-response","24","2.1.0","162552","9BA3C045770B4FD8ACEDC19F54B0D244","0198e2e6-af62-76ad-812a-16bb641a54e6","0198e2d6-5c2e-73f5-8451-25a6796d814f","","4631","<p style=""font-size: 25px;"">A person <strong>took a walk</strong>, then they <strong>remembered something</strong>.</p> 
               <p style=""font-size: 25px;"">Suppose that they didn't <strong>take a walk</strong>. <br>Would they still have <strong>remembered the same thing</strong>?</p>","49","","counterfactual","reach for something","","50","49","become hungry","","","","","","",""
"","","","","","html-slider-response","25","2.1.0","167039","9BA3C045770B4FD8ACEDC19F54B0D244","0198e2e6-af62-76ad-812a-16bb641a54e6","0198e2d6-5c2e-73f5-8451-25a6796d814f","","4487","<p style=""font-size: 25px;"">A person <strong>thought about something</strong>, then they <strong>kicked something</strong>.</p> 
               <p style=""font-size: 25px;"">Suppose that they didn't <strong>think about something</strong>. <br>Would they still have <strong>kicked the same thing</strong>?</p>","25","","counterfactual","choose what to do","","50","25","experience pain","","","","","","",""
"","","","","","html-slider-response","26","2.1.0","173704","9BA3C045770B4FD8ACEDC19F54B0D244","0198e2e6-af62-76ad-812a-16bb641a54e6","0198e2d6-5c2e-73f5-8451-25a6796d814f","","6664","<p style=""font-size: 25px;"">A person <strong>jumped up and down</strong>, then they <strong>sat down</strong>.</p> 
               <p style=""font-size: 25px;"">Suppose that they didn't <strong>jump up and down</strong>. <br>Would they still have <strong>sat down at the same place</strong>?</p>","50","","similarity","sit down","jump up and down","50","50","","","","","","","",""
"","","","","","html-slider-response","27","2.1.0","177399","9BA3C045770B4FD8ACEDC19F54B0D244","0198e2e6-af62-76ad-812a-16bb641a54e6","0198e2d6-5c2e-73f5-8451-25a6796d814f","","3695","<p style=""font-size: 25px;"">A person <strong>saw something</strong>, then they <strong>felt hungry</strong>.</p>
             <p style=""font-size: 25px;"">For this question, please select <strong>""definitely yes""</strong></p>","100","","attention_check_similarity","","","50","","","100","yes","","","","",""
"","","","","","html-slider-response","28","2.1.0","182368","9BA3C045770B4FD8ACEDC19F54B0D244","0198e2e6-af62-76ad-812a-16bb641a54e6","0198e2d6-5c2e-73f5-8451-25a6796d814f","","4968","<p style=""font-size: 25px;"">A person <strong>saw something</strong>, then they <strong>heard something</strong>.</p> 
               <p style=""font-size: 25px;"">Suppose that they didn't <strong>see something</strong>. <br>Would they still have <strong>heard the same thing</strong>?</p>","74","","similarity","hear something","see something","50","74","","","","","","","",""
"","","","","","html-slider-response","29","2.1.0","187215","9BA3C045770B4FD8ACEDC19F54B0D244","0198e2e6-af62-76ad-812a-16bb641a54e6","0198e2d6-5c2e-73f5-8451-25a6796d814f","","4847","<p style=""font-size: 25px;"">A person <strong>got sick</strong>, then they <strong>thought about something</strong>.</p> 
               <p style=""font-size: 25px;"">Suppose that they didn't <strong>get sick</strong>. <br>Would they still have <strong>thought the same thing</strong>?</p>","26","","counterfactual","experience pain","","50","26","kick something","","","","","","",""
"","","","","","html-slider-response","30","2.1.0","191408","9BA3C045770B4FD8ACEDC19F54B0D244","0198e2e6-af62-76ad-812a-16bb641a54e6","0198e2d6-5c2e-73f5-8451-25a6796d814f","","4192","<p style=""font-size: 25px;"">A person <strong>kicked something</strong>, then they <strong>reached for something</strong>.</p> 
               <p style=""font-size: 25px;"">Suppose that they didn't <strong>kick something</strong>. <br>Would they still have <strong>reached for the same thing</strong>?</p>","50","","similarity","reach for something","kick something","50","50","","","","","","","",""
"","","","","","html-slider-response","31","2.1.0","199343","9BA3C045770B4FD8ACEDC19F54B0D244","0198e2e6-af62-76ad-812a-16bb641a54e6","0198e2d6-5c2e-73f5-8451-25a6796d814f","","7935","<p style=""font-size: 25px;"">A person <strong>thought about something</strong>, then they <strong>remembered something</strong>.</p> 
               <p style=""font-size: 25px;"">Suppose that they didn't <strong>think about something</strong>. <br>Would they still have <strong>remembered the same thing</strong>?</p>","23","","similarity","remember something","think about something","50","23","","","","","","","",""
"","","","","","html-slider-response","32","2.1.0","205344","9BA3C045770B4FD8ACEDC19F54B0D244","0198e2e6-af62-76ad-812a-16bb641a54e6","0198e2d6-5c2e-73f5-8451-25a6796d814f","","6000","<p style=""font-size: 25px;"">A person <strong>took a walk</strong>, then they <strong>became hungry</strong>.</p> 
               <p style=""font-size: 25px;"">Suppose that they didn't <strong>take a walk</strong>. <br>Would they still have <strong>become hungry all the same</strong>?</p>","59","","counterfactual","jump up and down","","50","59","see something","","","","","","",""
"","","","","","html-slider-response","33","2.1.0","210336","9BA3C045770B4FD8ACEDC19F54B0D244","0198e2e6-af62-76ad-812a-16bb641a54e6","0198e2d6-5c2e-73f5-8451-25a6796d814f","","4992","<p style=""font-size: 25px;"">A person <strong>experienced pain</strong>, then they <strong>sat down</strong>.</p> 
               <p style=""font-size: 25px;"">Suppose that they didn't <strong>experience pain</strong>. <br>Would they still have <strong>sat down at the same place</strong>?</p>","50","","counterfactual","remember something","","50","50","take a walk","","","","","","",""
"","","","","","html-slider-response","34","2.1.0","214288","9BA3C045770B4FD8ACEDC19F54B0D244","0198e2e6-af62-76ad-812a-16bb641a54e6","0198e2d6-5c2e-73f5-8451-25a6796d814f","","3950","<p style=""font-size: 25px;"">A person <strong>thought about something</strong>, then they <strong>took a walk</strong>.</p> 
               <p style=""font-size: 25px;"">Suppose that they didn't <strong>think about something</strong>. <br>Would they still have <strong>taken the same walk</strong>?</p>","76","","counterfactual","become hungry","","50","76","take a walk","","","","","","",""
"","","","","","instructions","35","2.1.0","224633","9BA3C045770B4FD8ACEDC19F54B0D244","0198e2e6-af62-76ad-812a-16bb641a54e6","0198e2d6-5c2e-73f5-8451-25a6796d814f","","10345","","","[{""page_index"":0,""viewing_time"":10345}]","","","","","","","","","","","","",""
"","","","","","survey-html-form","36","2.1.0","272808","9BA3C045770B4FD8ACEDC19F54B0D244","0198e2e6-af62-76ad-812a-16bb641a54e6","0198e2d6-5c2e-73f5-8451-25a6796d814f","demographics_survey","48174","","{""feedback"":""I thought about the correlation between both things the person did. Then, I thought about the things individually. Then, I made my decision based on how I felt about the above."",""age"":""61"",""gender"":""Male"",""other_gender"":"""",""race"":""White"",""other_race"":"""",""ethnicity"":""Non-Hispanic""}","","","","","","","","","","I thought about the correlation between both things the person did. Then, I thought about the things individually. Then, I made my decision based on how I felt about the above.","61","Non-Hispanic","Male","White"
