"success","timeout","failed_images","failed_audio","failed_video","trial_type","trial_index","plugin_version","time_elapsed","mturk_participant_id","mturk_assignment_id","mturk_project_id","trial_id","rt","stimulus","response","view_history","condition","itemB","similar_itemA","slider_start","response_value","causal_itemA","attn_response","attn_correct","feedback","age","ethnicity","gender","race"
"true","false","[]","[]","[]","preload","0","2.1.0","10","F6586134F687435A9064E1C721EBC99F","0198e2e6-734c-73c3-b632-dd0f032259f7","0198e2d6-5c2e-73f5-8451-25a6796d814f","","","","","","","","","","","","","","","","","",""
"","","","","","html-button-response","1","2.1.0","12980","F6586134F687435A9064E1C721EBC99F","0198e2e6-734c-73c3-b632-dd0f032259f7","0198e2d6-5c2e-73f5-8451-25a6796d814f","consent","12968","<p><b>Consent Form</b></p> <div style=""text-align:left;background-color:lightblue; padding:2vw; max-width:80vw;""><p><b>Purpose:</b> The purpose of this study is to understand how people think about the physical and social world.</p><p><b>Procedures:</b> In this study, you will watch videos, read sentences, or see pictures, and answer simple questions about them. This study should take approximately 8 minutes</p><p><b>Participation:</b> Participation in this study is voluntary. If you decide to join now, you can change your mind later. </p><p><b>Payment:</b> You will be paid $15.00/hour for participating in this study. Given the estimated duration of 8 minutes, your payment will amount to $2.</p><p><b>Risks and benefits:</b> There are no risks associated with participating in this study. There are no direct benefits associated with participating in this study. </p><p><b>Use of data by study researchers:</b> The research team led by Shari Liu at JHU will have access to your answers. </p><p><b>Publication of results:</b> The results of the research may be presented at scientific meetings or published in scientific journals. Your individual responses may be published. We will never publish your name, the date that you participated, and any other information that could be used to identify you. </p><p><b>Researcher contact information:</b> This study is run by Dr. Shari Liu at JHU. If you have any questions or concerns about this study, or in the very unlikely event of a research-related injury, please contact sliu199@jhu.edu. </p><p><b>Research rights information:</b> If you have questions about your rights as a research participant or feel that you have not been treated fairly, please call the Homewood Institutional Review Board at Johns Hopkins University at (410) 516-6580. If you have any questions or issues completing the survey, please email Shari Liu at sliu199@jhu.edu. </p> </div><p> Do you consent to participate? </p>","0","","","","","","","","","","","","","",""
"","","","","","instructions","2","2.1.0","25517","F6586134F687435A9064E1C721EBC99F","0198e2e6-734c-73c3-b632-dd0f032259f7","0198e2d6-5c2e-73f5-8451-25a6796d814f","","12536","","","[{""page_index"":0,""viewing_time"":12536}]","","","","","","","","","","","","",""
"","","","","","html-slider-response","3","2.1.0","52357","F6586134F687435A9064E1C721EBC99F","0198e2e6-734c-73c3-b632-dd0f032259f7","0198e2d6-5c2e-73f5-8451-25a6796d814f","","26837","<p style=""font-size: 25px;"">A person <strong>heard something</strong>, then they <strong>saw something</strong>.</p> 
               <p style=""font-size: 25px;"">Suppose that they didn't <strong>hear something</strong>. <br>Would they still have <strong>seen the same thing</strong>?</p>","74","","similarity","see something","hear something","50","74","","","","","","","",""
"","","","","","html-slider-response","4","2.1.0","60480","F6586134F687435A9064E1C721EBC99F","0198e2e6-734c-73c3-b632-dd0f032259f7","0198e2d6-5c2e-73f5-8451-25a6796d814f","","8122","<p style=""font-size: 25px;"">A person <strong>took a walk</strong>, then they <strong>heard something</strong>.</p> 
               <p style=""font-size: 25px;"">Suppose that they didn't <strong>take a walk</strong>. <br>Would they still have <strong>heard the same thing</strong>?</p>","16","","counterfactual","kick something","","50","16","think about something","","","","","","",""
"","","","","","html-slider-response","5","2.1.0","71046","F6586134F687435A9064E1C721EBC99F","0198e2e6-734c-73c3-b632-dd0f032259f7","0198e2d6-5c2e-73f5-8451-25a6796d814f","","10563","<p style=""font-size: 25px;"">A person <strong>got sick</strong>, then they <strong>thought about something</strong>.</p> 
               <p style=""font-size: 25px;"">Suppose that they didn't <strong>get sick</strong>. <br>Would they still have <strong>thought the same thing</strong>?</p>","46","","counterfactual","jump up and down","","50","46","see something","","","","","","",""
"","","","","","html-slider-response","6","2.1.0","84374","F6586134F687435A9064E1C721EBC99F","0198e2e6-734c-73c3-b632-dd0f032259f7","0198e2d6-5c2e-73f5-8451-25a6796d814f","","13327","<p style=""font-size: 25px;"">A person <strong>took a walk</strong>, then they <strong>became hungry</strong>.</p> 
               <p style=""font-size: 25px;"">Suppose that they didn't <strong>take a walk</strong>. <br>Would they still have <strong>become hungry all the same</strong>?</p>","93","","counterfactual","sit down","","50","93","experience pain","","","","","","",""
"","","","","","html-slider-response","7","2.1.0","98114","F6586134F687435A9064E1C721EBC99F","0198e2e6-734c-73c3-b632-dd0f032259f7","0198e2d6-5c2e-73f5-8451-25a6796d814f","","13738","<p style=""font-size: 25px;"">A person <strong>became hungry</strong>, then they <strong>reached for something</strong>.</p> 
               <p style=""font-size: 25px;"">Suppose that they didn't <strong>become hungry</strong>. <br>Would they still have <strong>reached for the same thing</strong>?</p>","31","","counterfactual","take a walk","","50","31","think about something","","","","","","",""
"","","","","","html-slider-response","8","2.1.0","105341","F6586134F687435A9064E1C721EBC99F","0198e2e6-734c-73c3-b632-dd0f032259f7","0198e2d6-5c2e-73f5-8451-25a6796d814f","","7225","<p style=""font-size: 25px;"">A person <strong>got tired</strong>, then they <strong>experienced pain</strong>.</p> 
               <p style=""font-size: 25px;"">Suppose that they didn't <strong>get tired</strong>. <br>Would they still have <strong>experienced the same pain</strong>?</p>","86","","similarity","experience pain","get tired","50","86","","","","","","","",""
"","","","","","html-slider-response","9","2.1.0","142782","F6586134F687435A9064E1C721EBC99F","0198e2e6-734c-73c3-b632-dd0f032259f7","0198e2d6-5c2e-73f5-8451-25a6796d814f","","37440","<p style=""font-size: 25px;"">A person <strong>thought about something</strong>, then they <strong>took a walk</strong>.</p> 
               <p style=""font-size: 25px;"">Suppose that they didn't <strong>think about something</strong>. <br>Would they still have <strong>taken the same walk</strong>?</p>","53","","counterfactual","remember something","","50","53","take a walk","","","","","","",""
"","","","","","html-slider-response","10","2.1.0","150534","F6586134F687435A9064E1C721EBC99F","0198e2e6-734c-73c3-b632-dd0f032259f7","0198e2d6-5c2e-73f5-8451-25a6796d814f","","7751","<p style=""font-size: 25px;"">A person <strong>got tired</strong>, then they <strong>got sick</strong>.</p> 
               <p style=""font-size: 25px;"">Suppose that they didn't <strong>get tired</strong>. <br>Would they still have <strong>gotten sick in the same way</strong>?</p>","78","","similarity","get sick","get tired","50","78","","","","","","","",""
"","","","","","html-slider-response","11","2.1.0","156119","F6586134F687435A9064E1C721EBC99F","0198e2e6-734c-73c3-b632-dd0f032259f7","0198e2d6-5c2e-73f5-8451-25a6796d814f","","5583","<p style=""font-size: 25px;"">A person <strong>kicked something</strong>, then they <strong>reached for something</strong>.</p> 
               <p style=""font-size: 25px;"">Suppose that they didn't <strong>kick something</strong>. <br>Would they still have <strong>reached for the same thing</strong>?</p>","45","","similarity","reach for something","kick something","50","45","","","","","","","",""
"","","","","","html-slider-response","12","2.1.0","176917","F6586134F687435A9064E1C721EBC99F","0198e2e6-734c-73c3-b632-dd0f032259f7","0198e2d6-5c2e-73f5-8451-25a6796d814f","","20796","<p style=""font-size: 25px;"">A person <strong>saw something</strong>, then they <strong>felt scared</strong>.</p> 
               <p style=""font-size: 25px;"">Suppose that they didn't <strong>see something</strong>. <br>Would they still have <strong>felt scared all the same</strong>?</p>","9","","counterfactual","feel scared","","50","9","see something","","","","","","",""
"","","","","","html-slider-response","13","2.1.0","183956","F6586134F687435A9064E1C721EBC99F","0198e2e6-734c-73c3-b632-dd0f032259f7","0198e2d6-5c2e-73f5-8451-25a6796d814f","","7037","<p style=""font-size: 25px;"">A person <strong>remembered something</strong>, then they <strong>thought about something</strong>.</p> 
               <p style=""font-size: 25px;"">Suppose that they didn't <strong>remember something</strong>. <br>Would they still have <strong>thought the same thing</strong>?</p>","11","","similarity","think about something","remember something","50","11","","","","","","","",""
"","","","","","html-slider-response","14","2.1.0","190573","F6586134F687435A9064E1C721EBC99F","0198e2e6-734c-73c3-b632-dd0f032259f7","0198e2d6-5c2e-73f5-8451-25a6796d814f","","6616","<p style=""font-size: 25px;"">A person <strong>thought about something</strong>, then they <strong>kicked something</strong>.</p> 
               <p style=""font-size: 25px;"">Suppose that they didn't <strong>think about something</strong>. <br>Would they still have <strong>kicked the same thing</strong>?</p>","45","","counterfactual","hear something","","50","45","take a walk","","","","","","",""
"","","","","","html-slider-response","15","2.1.0","197891","F6586134F687435A9064E1C721EBC99F","0198e2e6-734c-73c3-b632-dd0f032259f7","0198e2d6-5c2e-73f5-8451-25a6796d814f","","7316","<p style=""font-size: 25px;"">A person <strong>sat down</strong>, then they <strong>kicked something</strong>.</p> 
               <p style=""font-size: 25px;"">Suppose that they didn't <strong>sit down</strong>. <br>Would they still have <strong>kicked the same thing</strong>?</p>","50","","similarity","kick something","sit down","50","50","","","","","","","",""
"","","","","","html-slider-response","16","2.1.0","201847","F6586134F687435A9064E1C721EBC99F","0198e2e6-734c-73c3-b632-dd0f032259f7","0198e2d6-5c2e-73f5-8451-25a6796d814f","","3954","<p style=""font-size: 25px;"">A person <strong>saw something</strong>, then they <strong>felt hungry</strong>.</p>
             <p style=""font-size: 25px;"">For this question, please select <strong>""definitely yes""</strong></p>","100","","attention_check_similarity","","","50","","","100","yes","","","","",""
"","","","","","html-slider-response","17","2.1.0","208402","F6586134F687435A9064E1C721EBC99F","0198e2e6-734c-73c3-b632-dd0f032259f7","0198e2d6-5c2e-73f5-8451-25a6796d814f","","6554","<p style=""font-size: 25px;"">A person <strong>remembered something</strong>, then they <strong>chose what to do</strong>.</p> 
               <p style=""font-size: 25px;"">Suppose that they didn't <strong>remember something</strong>. <br>Would they still have <strong>chosen to do the same thing</strong>?</p>","40","","similarity","choose what to do","remember something","50","40","","","","","","","",""
"","","","","","html-slider-response","18","2.1.0","215547","F6586134F687435A9064E1C721EBC99F","0198e2e6-734c-73c3-b632-dd0f032259f7","0198e2d6-5c2e-73f5-8451-25a6796d814f","","7143","<p style=""font-size: 25px;"">A person <strong>experienced pain</strong>, then they <strong>sat down</strong>.</p> 
               <p style=""font-size: 25px;"">Suppose that they didn't <strong>experience pain</strong>. <br>Would they still have <strong>sat down at the same place</strong>?</p>","8","","counterfactual","become hungry","","50","8","take a walk","","","","","","",""
"","","","","","html-slider-response","19","2.1.0","218249","F6586134F687435A9064E1C721EBC99F","0198e2e6-734c-73c3-b632-dd0f032259f7","0198e2d6-5c2e-73f5-8451-25a6796d814f","","2701","<p style=""font-size: 25px;"">A person <strong>jumped up and down</strong>, then they <strong>got tired</strong>.</p>
             <p style=""font-size: 25px;"">For this question, please select <strong>""definitely not""</strong></p>","0","","attention_check_counterfactual","","","50","","","0","yes","","","","",""
"","","","","","html-slider-response","20","2.1.0","224302","F6586134F687435A9064E1C721EBC99F","0198e2e6-734c-73c3-b632-dd0f032259f7","0198e2d6-5c2e-73f5-8451-25a6796d814f","","6051","<p style=""font-size: 25px;"">A person <strong>took a walk</strong>, then they <strong>remembered something</strong>.</p> 
               <p style=""font-size: 25px;"">Suppose that they didn't <strong>take a walk</strong>. <br>Would they still have <strong>remembered the same thing</strong>?</p>","71","","counterfactual","experience pain","","50","71","kick something","","","","","","",""
"","","","","","html-slider-response","21","2.1.0","230564","F6586134F687435A9064E1C721EBC99F","0198e2e6-734c-73c3-b632-dd0f032259f7","0198e2d6-5c2e-73f5-8451-25a6796d814f","","6261","<p style=""font-size: 25px;"">A person <strong>jumped up and down</strong>, then they <strong>sat down</strong>.</p> 
               <p style=""font-size: 25px;"">Suppose that they didn't <strong>jump up and down</strong>. <br>Would they still have <strong>sat down at the same place</strong>?</p>","33","","similarity","sit down","jump up and down","50","33","","","","","","","",""
"","","","","","html-slider-response","22","2.1.0","238156","F6586134F687435A9064E1C721EBC99F","0198e2e6-734c-73c3-b632-dd0f032259f7","0198e2d6-5c2e-73f5-8451-25a6796d814f","","7590","<p style=""font-size: 25px;"">A person <strong>sat down</strong>, then they <strong>took a walk</strong>.</p> 
               <p style=""font-size: 25px;"">Suppose that they didn't <strong>sit down</strong>. <br>Would they still have <strong>taken the same walk</strong>?</p>","79","","similarity","take a walk","sit down","50","79","","","","","","","",""
"","","","","","html-slider-response","23","2.1.0","243371","F6586134F687435A9064E1C721EBC99F","0198e2e6-734c-73c3-b632-dd0f032259f7","0198e2d6-5c2e-73f5-8451-25a6796d814f","","5214","<p style=""font-size: 25px;"">A person <strong>sat down</strong>, then they <strong>jumped up and down</strong>.</p> 
               <p style=""font-size: 25px;"">Suppose that they didn't <strong>sit down</strong>. <br>Would they still have <strong>jumped up and down</strong>?</p>","74","","similarity","jump up and down","sit down","50","74","","","","","","","",""
"","","","","","html-slider-response","24","2.1.0","252226","F6586134F687435A9064E1C721EBC99F","0198e2e6-734c-73c3-b632-dd0f032259f7","0198e2d6-5c2e-73f5-8451-25a6796d814f","","8854","<p style=""font-size: 25px;"">A person <strong>saw something</strong>, then they <strong>got sick</strong>.</p> 
               <p style=""font-size: 25px;"">Suppose that they didn't <strong>see something</strong>. <br>Would they still have <strong>gotten sick in the same way</strong>?</p>","40","","counterfactual","think about something","","50","40","get sick","","","","","","",""
"","","","","","html-slider-response","25","2.1.0","297232","F6586134F687435A9064E1C721EBC99F","0198e2e6-734c-73c3-b632-dd0f032259f7","0198e2d6-5c2e-73f5-8451-25a6796d814f","","45005","<p style=""font-size: 25px;"">A person <strong>felt scared</strong>, then they <strong>became hungry</strong>.</p> 
               <p style=""font-size: 25px;"">Suppose that they didn't <strong>feel scared</strong>. <br>Would they still have <strong>become hungry all the same</strong>?</p>","84","","similarity","become hungry","feel scared","50","84","","","","","","","",""
"","","","","","html-slider-response","26","2.1.0","305720","F6586134F687435A9064E1C721EBC99F","0198e2e6-734c-73c3-b632-dd0f032259f7","0198e2d6-5c2e-73f5-8451-25a6796d814f","","8486","<p style=""font-size: 25px;"">A person <strong>saw something</strong>, then they <strong>heard something</strong>.</p> 
               <p style=""font-size: 25px;"">Suppose that they didn't <strong>see something</strong>. <br>Would they still have <strong>heard the same thing</strong>?</p>","86","","similarity","hear something","see something","50","86","","","","","","","",""
"","","","","","html-slider-response","27","2.1.0","339720","F6586134F687435A9064E1C721EBC99F","0198e2e6-734c-73c3-b632-dd0f032259f7","0198e2d6-5c2e-73f5-8451-25a6796d814f","","33999","<p style=""font-size: 25px;"">A person <strong>thought about something</strong>, then they <strong>remembered something</strong>.</p> 
               <p style=""font-size: 25px;"">Suppose that they didn't <strong>think about something</strong>. <br>Would they still have <strong>remembered the same thing</strong>?</p>","22","","similarity","remember something","think about something","50","22","","","","","","","",""
"","","","","","html-slider-response","28","2.1.0","350352","F6586134F687435A9064E1C721EBC99F","0198e2e6-734c-73c3-b632-dd0f032259f7","0198e2d6-5c2e-73f5-8451-25a6796d814f","","10630","<p style=""font-size: 25px;"">A person <strong>saw something</strong>, then they <strong>jumped up and down</strong>.</p> 
               <p style=""font-size: 25px;"">Suppose that they didn't <strong>see something</strong>. <br>Would they still have <strong>jumped up and down</strong>?</p>","21","","counterfactual","reach for something","","50","21","become hungry","","","","","","",""
"","","","","","html-slider-response","29","2.1.0","363260","F6586134F687435A9064E1C721EBC99F","0198e2e6-734c-73c3-b632-dd0f032259f7","0198e2d6-5c2e-73f5-8451-25a6796d814f","","12906","<p style=""font-size: 25px;"">A person <strong>got tired</strong>, then they <strong>felt scared</strong>.</p> 
               <p style=""font-size: 25px;"">Suppose that they didn't <strong>get tired</strong>. <br>Would they still have <strong>felt scared all the same</strong>?</p>","54","","similarity","feel scared","get tired","50","54","","","","","","","",""
"","","","","","html-slider-response","30","2.1.0","367719","F6586134F687435A9064E1C721EBC99F","0198e2e6-734c-73c3-b632-dd0f032259f7","0198e2d6-5c2e-73f5-8451-25a6796d814f","","4458","<p style=""font-size: 25px;"">A person <strong>kicked something</strong>, then they <strong>experienced pain</strong>.</p> 
               <p style=""font-size: 25px;"">Suppose that they didn't <strong>kick something</strong>. <br>Would they still have <strong>experienced the same pain</strong>?</p>","2","","counterfactual","see something","","50","2","take a walk","","","","","","",""
"","","","","","html-slider-response","31","2.1.0","371437","F6586134F687435A9064E1C721EBC99F","0198e2e6-734c-73c3-b632-dd0f032259f7","0198e2d6-5c2e-73f5-8451-25a6796d814f","","3717","<p style=""font-size: 25px;"">A person <strong>jumped up and down</strong>, then they <strong>got tired</strong>.</p> 
               <p style=""font-size: 25px;"">Suppose that they didn't <strong>jump up and down</strong>. <br>Would they still have <strong>gotten tired all the same</strong>?</p>","3","","counterfactual","get tired","","50","3","jump up and down","","","","","","",""
"","","","","","html-slider-response","32","2.1.0","375764","F6586134F687435A9064E1C721EBC99F","0198e2e6-734c-73c3-b632-dd0f032259f7","0198e2d6-5c2e-73f5-8451-25a6796d814f","","4326","<p style=""font-size: 25px;"">A person <strong>felt scared</strong>, then they <strong>got tired</strong>.</p> 
               <p style=""font-size: 25px;"">Suppose that they didn't <strong>feel scared</strong>. <br>Would they still have <strong>gotten tired all the same</strong>?</p>","25","","similarity","get tired","feel scared","50","25","","","","","","","",""
"","","","","","html-slider-response","33","2.1.0","380020","F6586134F687435A9064E1C721EBC99F","0198e2e6-734c-73c3-b632-dd0f032259f7","0198e2d6-5c2e-73f5-8451-25a6796d814f","","4254","<p style=""font-size: 25px;"">A person <strong>took a walk</strong>, then they <strong>saw something</strong>.</p> 
               <p style=""font-size: 25px;"">Suppose that they didn't <strong>take a walk</strong>. <br>Would they still have <strong>seen the same thing</strong>?</p>","3","","counterfactual","choose what to do","","50","3","experience pain","","","","","","",""
"","","","","","html-slider-response","34","2.1.0","386542","F6586134F687435A9064E1C721EBC99F","0198e2e6-734c-73c3-b632-dd0f032259f7","0198e2d6-5c2e-73f5-8451-25a6796d814f","","6520","<p style=""font-size: 25px;"">A person <strong>experienced pain</strong>, then they <strong>chose what to do</strong>.</p> 
               <p style=""font-size: 25px;"">Suppose that they didn't <strong>experience pain</strong>. <br>Would they still have <strong>chosen to do the same thing</strong>?</p>","0","","counterfactual","get sick","","50","0","see something","","","","","","",""
"","","","","","instructions","35","2.1.0","389841","F6586134F687435A9064E1C721EBC99F","0198e2e6-734c-73c3-b632-dd0f032259f7","0198e2d6-5c2e-73f5-8451-25a6796d814f","","3298","","","[{""page_index"":0,""viewing_time"":3298}]","","","","","","","","","","","","",""
"","","","","","survey-html-form","36","2.1.0","449192","F6586134F687435A9064E1C721EBC99F","0198e2e6-734c-73c3-b632-dd0f032259f7","0198e2d6-5c2e-73f5-8451-25a6796d814f","demographics_survey","59338","","{""feedback"":""I used backwards thinking, starting with the 2nd action and then deciding if I still would've done the same thing if the 1st action hadn't occurred. I thought about how the 1st action affected the 2nd action occurring. "",""age"":""29"",""gender"":""Female"",""other_gender"":"""",""race"":""White"",""other_race"":"""",""ethnicity"":""Non-Hispanic""}","","","","","","","","","","I used backwards thinking, starting with the 2nd action and then deciding if I still would've done the same thing if the 1st action hadn't occurred. I thought about how the 1st action affected the 2nd action occurring. ","29","Non-Hispanic","Female","White"
