"success","timeout","failed_images","failed_audio","failed_video","trial_type","trial_index","plugin_version","time_elapsed","mturk_participant_id","mturk_assignment_id","mturk_project_id","trial_id","rt","stimulus","response","view_history","condition","correct_response_attn","selected_choice","itemB","causal_itemA","similar_itemA","feedback","age","ethnicity","gender","race"
"true","false","[]","[]","[]","preload","0","2.1.0","12","617C12DEA8454D779C34D9CF2B32E6CF","6a9f4c54-adc8-4829-b702-9ab740944310","96564893-8422-4b16-9829-37cef1b14394","","","","","","","","","","","","","","","",""
"","","","","","html-button-response","1","2.1.0","6509","617C12DEA8454D779C34D9CF2B32E6CF","6a9f4c54-adc8-4829-b702-9ab740944310","96564893-8422-4b16-9829-37cef1b14394","consent","6494","<p><b>Consent Form</b></p> <div style=""text-align:left;background-color:lightblue; padding:2vw; max-width:80vw;""><p><b>Purpose:</b> The purpose of this study is to understand how people think about the physical and social world.</p><p><b>Procedures:</b> In this study, you will watch videos, read sentences, or see pictures, and answer simple questions about them. This study should take approximately 4 minutes.</p><p><b>Participation:</b> Participation in this study is voluntary. If you decide to join now, you can change your mind later. </p><p><b>Payment:</b> You will be paid $15.00/hour for participating in this study. Given the estimated duration of 4 minutes, your payment will amount to $1.00.</p><p><b>Risks and benefits:</b> There are no risks associated with participating in this study. There are no direct benefits associated with participating in this study. </p><p><b>Use of data by study researchers:</b> The research team led by Shari Liu at JHU will have access to your answers. </p><p><b>Publication of results:</b> The results of the research may be presented at scientific meetings or published in scientific journals. Your individual responses may be published. We will never publish your name, the date that you participated, and any other information that could be used to identify you. </p><p><b>Researcher contact information:</b> This study is run by Dr. Shari Liu at JHU. If you have any questions or concerns about this study, or in the very unlikely event of a research-related injury, please contact sliu199@jhu.edu. </p><p><b>Research rights information:</b> If you have questions about your rights as a research participant or feel that you have not been treated fairly, please call the Homewood Institutional Review Board at Johns Hopkins University at (410) 516-6580. If you have any questions or issues completing the survey, please email Shari Liu at sliu199@jhu.edu. </p> </div><p> Do you consent to participate? </p>","0","","","","","","","","","","","",""
"","","","","","instructions","2","2.1.0","17917","617C12DEA8454D779C34D9CF2B32E6CF","6a9f4c54-adc8-4829-b702-9ab740944310","96564893-8422-4b16-9829-37cef1b14394","","11405","","","[{""page_index"":0,""viewing_time"":11405}]","","","","","","","","","","",""
"","","","","","html-button-response","3","2.1.0","26869","617C12DEA8454D779C34D9CF2B32E6CF","6a9f4c54-adc8-4829-b702-9ab740944310","96564893-8422-4b16-9829-37cef1b14394","","8950","<p style=""font-size: 25px;"">For this question, please select ""<strong>choose what to do</strong>""</p>
            <p style=""font-size: 25px;"">Giving the creature the ability to...</p>","0","","attention_check","choose what to do","choose what to do","","","","","","","",""
"","","","","","html-button-response","4","2.1.0","35013","617C12DEA8454D779C34D9CF2B32E6CF","6a9f4c54-adc8-4829-b702-9ab740944310","96564893-8422-4b16-9829-37cef1b14394","","8142","<p style=""font-size: 25px;"">Suppose that you had magical powers, and wanted to give a creature the ability to <strong>take a walk</strong>. 
               <br>However you ran out of that specific spell. 
               <br>Which of these other two spells would most likely accomplish your goal?</p>
               <p style=""font-size: 25px;"">Giving the creature the ability to...</p>","0","","similar","","<p style=""font-size: 25px;""><strong>jump up and down</strong></p>","take a walk","think about something","jump up and down","","","","",""
"","","","","","html-button-response","5","2.1.0","41377","617C12DEA8454D779C34D9CF2B32E6CF","6a9f4c54-adc8-4829-b702-9ab740944310","96564893-8422-4b16-9829-37cef1b14394","","6362","<p style=""font-size: 25px;"">Suppose that you had magical powers, and wanted to give a creature the ability to <strong>reach for something</strong>. 
               <br>However you ran out of that specific spell. 
               <br>Which of these other two spells would most likely accomplish your goal?</p>
               <p style=""font-size: 25px;"">Giving the creature the ability to...</p>","1","","similar","","<p style=""font-size: 25px;""><strong>become hungry</strong></p>","reach for something","become hungry","kick something","","","","",""
"","","","","","html-button-response","6","2.1.0","49452","617C12DEA8454D779C34D9CF2B32E6CF","6a9f4c54-adc8-4829-b702-9ab740944310","96564893-8422-4b16-9829-37cef1b14394","","8074","<p style=""font-size: 25px;"">Suppose that you had magical powers, and wanted to give a creature the ability to <strong>get tired</strong>. 
               <br>However you ran out of that specific spell. 
               <br>Which of these other two spells would most likely accomplish your goal?</p>
               <p style=""font-size: 25px;"">Giving the creature the ability to...</p>","1","","similar","","<p style=""font-size: 25px;""><strong>feel scared</strong></p>","get tired","jump up and down","feel scared","","","","",""
"","","","","","html-button-response","7","2.1.0","57472","617C12DEA8454D779C34D9CF2B32E6CF","6a9f4c54-adc8-4829-b702-9ab740944310","96564893-8422-4b16-9829-37cef1b14394","","8018","<p style=""font-size: 25px;"">Suppose that you had magical powers, and wanted to give a creature the ability to <strong>see something</strong>. 
               <br>However you ran out of that specific spell. 
               <br>Which of these other two spells would most likely accomplish your goal?</p>
               <p style=""font-size: 25px;"">Giving the creature the ability to...</p>","0","","similar","","<p style=""font-size: 25px;""><strong>take a walk</strong></p>","see something","take a walk","hear something","","","","",""
"","","","","","html-button-response","8","2.1.0","61573","617C12DEA8454D779C34D9CF2B32E6CF","6a9f4c54-adc8-4829-b702-9ab740944310","96564893-8422-4b16-9829-37cef1b14394","","4098","<p style=""font-size: 25px;"">Suppose that you had magical powers, and wanted to give a creature the ability to <strong>think about something</strong>. 
               <br>However you ran out of that specific spell. 
               <br>Which of these other two spells would most likely accomplish your goal?</p>
               <p style=""font-size: 25px;"">Giving the creature the ability to...</p>","1","","similar","","<p style=""font-size: 25px;""><strong>remember something</strong></p>","think about something","take a walk","remember something","","","","",""
"","","","","","html-button-response","9","2.1.0","64156","617C12DEA8454D779C34D9CF2B32E6CF","6a9f4c54-adc8-4829-b702-9ab740944310","96564893-8422-4b16-9829-37cef1b14394","","2582","<p style=""font-size: 25px;"">Suppose that you had magical powers, and wanted to give a creature the ability to <strong>jump up and down</strong>. 
               <br>However you ran out of that specific spell. 
               <br>Which of these other two spells would most likely accomplish your goal?</p>
               <p style=""font-size: 25px;"">Giving the creature the ability to...</p>","0","","similar","","<p style=""font-size: 25px;""><strong>sit down</strong></p>","jump up and down","think about something","sit down","","","","",""
"","","","","","html-button-response","10","2.1.0","69069","617C12DEA8454D779C34D9CF2B32E6CF","6a9f4c54-adc8-4829-b702-9ab740944310","96564893-8422-4b16-9829-37cef1b14394","","4910","<p style=""font-size: 25px;"">Suppose that you had magical powers, and wanted to give a creature the ability to <strong>experience pain</strong>. 
               <br>However you ran out of that specific spell. 
               <br>Which of these other two spells would most likely accomplish your goal?</p>
               <p style=""font-size: 25px;"">Giving the creature the ability to...</p>","1","","similar","","<p style=""font-size: 25px;""><strong>kick something</strong></p>","experience pain","kick something","feel scared","","","","",""
"","","","","","html-button-response","11","2.1.0","75256","617C12DEA8454D779C34D9CF2B32E6CF","6a9f4c54-adc8-4829-b702-9ab740944310","96564893-8422-4b16-9829-37cef1b14394","","6186","<p style=""font-size: 25px;"">Suppose that you had magical powers, and wanted to give a creature the ability to <strong>get sick</strong>. 
               <br>However you ran out of that specific spell. 
               <br>Which of these other two spells would most likely accomplish your goal?</p>
               <p style=""font-size: 25px;"">Giving the creature the ability to...</p>","1","","similar","","<p style=""font-size: 25px;""><strong>get tired</strong></p>","get sick","see something","get tired","","","","",""
"","","","","","html-button-response","12","2.1.0","80400","617C12DEA8454D779C34D9CF2B32E6CF","6a9f4c54-adc8-4829-b702-9ab740944310","96564893-8422-4b16-9829-37cef1b14394","","5142","<p style=""font-size: 25px;"">Suppose that you had magical powers, and wanted to give a creature the ability to <strong>sit down</strong>. 
               <br>However you ran out of that specific spell. 
               <br>Which of these other two spells would most likely accomplish your goal?</p>
               <p style=""font-size: 25px;"">Giving the creature the ability to...</p>","0","","similar","","<p style=""font-size: 25px;""><strong>experience pain</strong></p>","sit down","experience pain","jump up and down","","","","",""
"","","","","","html-button-response","13","2.1.0","84364","617C12DEA8454D779C34D9CF2B32E6CF","6a9f4c54-adc8-4829-b702-9ab740944310","96564893-8422-4b16-9829-37cef1b14394","","3962","<p style=""font-size: 25px;"">Suppose that you had magical powers, and wanted to give a creature the ability to <strong>remember something</strong>. 
               <br>However you ran out of that specific spell. 
               <br>Which of these other two spells would most likely accomplish your goal?</p>
               <p style=""font-size: 25px;"">Giving the creature the ability to...</p>","0","","similar","","<p style=""font-size: 25px;""><strong>think about something</strong></p>","remember something","take a walk","think about something","","","","",""
"","","","","","html-button-response","14","2.1.0","89468","617C12DEA8454D779C34D9CF2B32E6CF","6a9f4c54-adc8-4829-b702-9ab740944310","96564893-8422-4b16-9829-37cef1b14394","","5102","<p style=""font-size: 25px;"">Suppose that you had magical powers, and wanted to give a creature the ability to <strong>kick something</strong>. 
               <br>However you ran out of that specific spell. 
               <br>Which of these other two spells would most likely accomplish your goal?</p>
               <p style=""font-size: 25px;"">Giving the creature the ability to...</p>","0","","similar","","<p style=""font-size: 25px;""><strong>jump up and down</strong></p>","kick something","think about something","jump up and down","","","","",""
"","","","","","html-button-response","15","2.1.0","95520","617C12DEA8454D779C34D9CF2B32E6CF","6a9f4c54-adc8-4829-b702-9ab740944310","96564893-8422-4b16-9829-37cef1b14394","","6050","<p style=""font-size: 25px;"">Suppose that you had magical powers, and wanted to give a creature the ability to <strong>feel scared</strong>. 
               <br>However you ran out of that specific spell. 
               <br>Which of these other two spells would most likely accomplish your goal?</p>
               <p style=""font-size: 25px;"">Giving the creature the ability to...</p>","1","","similar","","<p style=""font-size: 25px;""><strong>see something</strong></p>","feel scared","see something","become hungry","","","","",""
"","","","","","html-button-response","16","2.1.0","100096","617C12DEA8454D779C34D9CF2B32E6CF","6a9f4c54-adc8-4829-b702-9ab740944310","96564893-8422-4b16-9829-37cef1b14394","","4574","<p style=""font-size: 25px;"">Suppose that you had magical powers, and wanted to give a creature the ability to <strong>choose what to do</strong>. 
               <br>However you ran out of that specific spell. 
               <br>Which of these other two spells would most likely accomplish your goal?</p>
               <p style=""font-size: 25px;"">Giving the creature the ability to...</p>","1","","similar","","<p style=""font-size: 25px;""><strong>feel scared</strong></p>","choose what to do","feel scared","remember something","","","","",""
"","","","","","html-button-response","17","2.1.0","106988","617C12DEA8454D779C34D9CF2B32E6CF","6a9f4c54-adc8-4829-b702-9ab740944310","96564893-8422-4b16-9829-37cef1b14394","","6890","<p style=""font-size: 25px;"">Suppose that you had magical powers, and wanted to give a creature the ability to <strong>hear something</strong>. 
               <br>However you ran out of that specific spell. 
               <br>Which of these other two spells would most likely accomplish your goal?</p>
               <p style=""font-size: 25px;"">Giving the creature the ability to...</p>","1","","similar","","<p style=""font-size: 25px;""><strong>take a walk</strong></p>","hear something","take a walk","see something","","","","",""
"","","","","","html-button-response","18","2.1.0","110780","617C12DEA8454D779C34D9CF2B32E6CF","6a9f4c54-adc8-4829-b702-9ab740944310","96564893-8422-4b16-9829-37cef1b14394","","3790","<p style=""font-size: 25px;"">Suppose that you had magical powers, and wanted to give a creature the ability to <strong>become hungry</strong>. 
               <br>However you ran out of that specific spell. 
               <br>Which of these other two spells would most likely accomplish your goal?</p>
               <p style=""font-size: 25px;"">Giving the creature the ability to...</p>","1","","similar","","<p style=""font-size: 25px;""><strong>take a walk</strong></p>","become hungry","take a walk","experience pain","","","","",""
"","","","","","instructions","19","2.1.0","114032","617C12DEA8454D779C34D9CF2B32E6CF","6a9f4c54-adc8-4829-b702-9ab740944310","96564893-8422-4b16-9829-37cef1b14394","","3251","","","[{""page_index"":0,""viewing_time"":3250}]","","","","","","","","","","",""
"","","","","","survey-html-form","20","2.1.0","148462","617C12DEA8454D779C34D9CF2B32E6CF","6a9f4c54-adc8-4829-b702-9ab740944310","96564893-8422-4b16-9829-37cef1b14394","demographics_survey","34427","","{""feedback"":""I just tried to match the action with another action that might lead to that action."",""age"":""47"",""gender"":""Male"",""other_gender"":"""",""race"":""White"",""other_race"":"""",""ethnicity"":""Non-Hispanic""}","","","","","","","","I just tried to match the action with another action that might lead to that action.","47","Non-Hispanic","Male","White"
