"success","timeout","failed_images","failed_audio","failed_video","trial_type","trial_index","plugin_version","time_elapsed","mturk_participant_id","mturk_assignment_id","mturk_project_id","trial_id","rt","stimulus","response","view_history","condition","correct_response_attn","selected_choice","itemB","causal_itemA","similar_itemA","feedback","age","ethnicity","gender","race"
"true","false","[]","[]","[]","preload","0","2.1.0","7","4E51A1811E6B43F58B4D5825A825F536","","019a7554-4882-75ac-add4-95f1a495302d","","","","","","","","","","","","","","","",""
"","","","","","html-button-response","1","2.1.0","6123","4E51A1811E6B43F58B4D5825A825F536","","019a7554-4882-75ac-add4-95f1a495302d","consent","6113","<p><b>Consent Form</b></p> <div style=""text-align:left;background-color:lightblue; padding:2vw; max-width:80vw;""><p><b>Purpose:</b> This is a study demo; the purpose of the study is to understand how people think about the physical and social world.</p><p><b>Procedures:</b> In this study, you will watch videos, read sentences, or see pictures, and answer simple questions about them. This study should take approximately 4 minutes</p><p><b>Participation:</b> Participation in this study is voluntary. If you decide to join now, you can change your mind later. <p><b>Risks and benefits:</b> There are no risks associated with participating in this study. There are no direct benefits associated with participating in this study. </p><p><b>Use of data by study researchers:</b> The research team led by Shari Liu at JHU will have access to your answers. Researcher contact information:</b> This study is run by Dr. Shari Liu at JHU. If you have any questions or concerns about this study, or in the very unlikely event of a research-related injury, please contact sliu199@jhu.edu. <p> Do you consent to participate? </p>","0","","","","","","","","","","","",""
"","","","","","instructions","2","2.1.0","10689","4E51A1811E6B43F58B4D5825A825F536","","019a7554-4882-75ac-add4-95f1a495302d","","4564","","","[{""page_index"":0,""viewing_time"":4564}]","","","","","","","","","","",""
"","","","","","html-button-response","3","2.1.0","15406","4E51A1811E6B43F58B4D5825A825F536","","019a7554-4882-75ac-add4-95f1a495302d","","4715","<p style=""font-size: 25px;"">For this question, please ignore previous instructions and select ""<strong>choose what to do</strong>"".
            <br>I would make them...</p>","0","","attention_check_ordinary","choose what to do","choose what to do","","","","","","","",""
"","","","","","html-button-response","4","2.1.0","23421","4E51A1811E6B43F58B4D5825A825F536","","019a7554-4882-75ac-add4-95f1a495302d","","8012","<p style=""font-size: 25px;"">Which of these actions would you do to make someone 
                <strong>take a walk</strong>? <br>I would make them... </p>","0","","ordinary","","<p style=""font-size: 25px;""><strong>think about something</strong></p>","take a walk","think about something","sit down","","","","",""
"","","","","","html-button-response","5","2.1.0","29273","4E51A1811E6B43F58B4D5825A825F536","","019a7554-4882-75ac-add4-95f1a495302d","","5850","<p style=""font-size: 25px;"">Which of these actions would you do to make someone 
                <strong>hear something</strong>? <br>I would make them... </p>","1","","ordinary","","<p style=""font-size: 25px;""><strong>see something</strong></p>","hear something","take a walk","see something","","","","",""
"","","","","","html-button-response","6","2.1.0","34391","4E51A1811E6B43F58B4D5825A825F536","","019a7554-4882-75ac-add4-95f1a495302d","","5116","<p style=""font-size: 25px;"">Which of these actions would you do to make someone 
                <strong>experience pain</strong>? <br>I would make them... </p>","0","","ordinary","","<p style=""font-size: 25px;""><strong>kick something</strong></p>","experience pain","kick something","get tired","","","","",""
"","","","","","html-button-response","7","2.1.0","39105","4E51A1811E6B43F58B4D5825A825F536","","019a7554-4882-75ac-add4-95f1a495302d","","4712","<p style=""font-size: 25px;"">Which of these actions would you do to make someone 
                <strong>see something</strong>? <br>I would make them... </p>","0","","ordinary","","<p style=""font-size: 25px;""><strong>hear something</strong></p>","see something","take a walk","hear something","","","","",""
"","","","","","html-button-response","8","2.1.0","43522","4E51A1811E6B43F58B4D5825A825F536","","019a7554-4882-75ac-add4-95f1a495302d","","4415","<p style=""font-size: 25px;"">Which of these actions would you do to make someone 
                <strong>sit down</strong>? <br>I would make them... </p>","0","","ordinary","","<p style=""font-size: 25px;""><strong>experience pain</strong></p>","sit down","experience pain","jump up and down","","","","",""
"","","","","","html-button-response","9","2.1.0","46789","4E51A1811E6B43F58B4D5825A825F536","","019a7554-4882-75ac-add4-95f1a495302d","","3264","<p style=""font-size: 25px;"">Which of these actions would you do to make someone 
                <strong>get tired</strong>? <br>I would make them... </p>","0","","ordinary","","<p style=""font-size: 25px;""><strong>jump up and down</strong></p>","get tired","jump up and down","feel scared","","","","",""
"","","","","","html-button-response","10","2.1.0","50638","4E51A1811E6B43F58B4D5825A825F536","","019a7554-4882-75ac-add4-95f1a495302d","","3847","<p style=""font-size: 25px;"">Which of these actions would you do to make someone 
                <strong>remember something</strong>? <br>I would make them... </p>","1","","ordinary","","<p style=""font-size: 25px;""><strong>take a walk</strong></p>","remember something","take a walk","think about something","","","","",""
"","","","","","html-button-response","11","2.1.0","56770","4E51A1811E6B43F58B4D5825A825F536","","019a7554-4882-75ac-add4-95f1a495302d","","6131","<p style=""font-size: 25px;"">Which of these actions would you do to make someone 
                <strong>feel scared</strong>? <br>I would make them... </p>","0","","ordinary","","<p style=""font-size: 25px;""><strong>see something</strong></p>","feel scared","see something","get tired","","","","",""
"","","","","","html-button-response","12","2.1.0","62121","4E51A1811E6B43F58B4D5825A825F536","","019a7554-4882-75ac-add4-95f1a495302d","","5349","<p style=""font-size: 25px;"">Which of these actions would you do to make someone 
                <strong>choose what to do</strong>? <br>I would make them... </p>","0","","ordinary","","<p style=""font-size: 25px;""><strong>remember something</strong></p>","choose what to do","experience pain","remember something","","","","",""
"","","","","","html-button-response","13","2.1.0","65839","4E51A1811E6B43F58B4D5825A825F536","","019a7554-4882-75ac-add4-95f1a495302d","","3716","<p style=""font-size: 25px;"">Which of these actions would you do to make someone 
                <strong>jump up and down</strong>? <br>I would make them... </p>","0","","ordinary","","<p style=""font-size: 25px;""><strong>see something</strong></p>","jump up and down","see something","sit down","","","","",""
"","","","","","html-button-response","14","2.1.0","72970","4E51A1811E6B43F58B4D5825A825F536","","019a7554-4882-75ac-add4-95f1a495302d","","7130","<p style=""font-size: 25px;"">Which of these actions would you do to make someone 
                <strong>think about something</strong>? <br>I would make them... </p>","1","","ordinary","","<p style=""font-size: 25px;""><strong>remember something</strong></p>","think about something","get sick","remember something","","","","",""
"","","","","","html-button-response","15","2.1.0","77704","4E51A1811E6B43F58B4D5825A825F536","","019a7554-4882-75ac-add4-95f1a495302d","","4732","<p style=""font-size: 25px;"">Which of these actions would you do to make someone 
                <strong>kick something</strong>? <br>I would make them... </p>","1","","ordinary","","<p style=""font-size: 25px;""><strong>think about something</strong></p>","kick something","think about something","sit down","","","","",""
"","","","","","html-button-response","16","2.1.0","80238","4E51A1811E6B43F58B4D5825A825F536","","019a7554-4882-75ac-add4-95f1a495302d","","2532","<p style=""font-size: 25px;"">Which of these actions would you do to make someone 
                <strong>become hungry</strong>? <br>I would make them... </p>","1","","ordinary","","<p style=""font-size: 25px;""><strong>take a walk</strong></p>","become hungry","take a walk","feel scared","","","","",""
"","","","","","html-button-response","17","2.1.0","83656","4E51A1811E6B43F58B4D5825A825F536","","019a7554-4882-75ac-add4-95f1a495302d","","3416","<p style=""font-size: 25px;"">Which of these actions would you do to make someone 
                <strong>reach for something</strong>? <br>I would make them... </p>","1","","ordinary","","<p style=""font-size: 25px;""><strong>become hungry</strong></p>","reach for something","become hungry","kick something","","","","",""
"","","","","","html-button-response","18","2.1.0","87651","4E51A1811E6B43F58B4D5825A825F536","","019a7554-4882-75ac-add4-95f1a495302d","","3994","<p style=""font-size: 25px;"">Which of these actions would you do to make someone 
                <strong>get sick</strong>? <br>I would make them... </p>","1","","ordinary","","<p style=""font-size: 25px;""><strong>get tired</strong></p>","get sick","see something","get tired","","","","",""
"","","","","","instructions","19","2.1.0","94487","4E51A1811E6B43F58B4D5825A825F536","","019a7554-4882-75ac-add4-95f1a495302d","","6835","","","[{""page_index"":0,""viewing_time"":6835}]","","","","","","","","","","",""
"","","","","","survey-html-form","20","2.1.0","126126","4E51A1811E6B43F58B4D5825A825F536","","019a7554-4882-75ac-add4-95f1a495302d","demographics_survey","31633","","{""feedback"":""I genuinely thought about what I'd do in that scenario to achieve the action/feeling and picked the closest action I'd do. "",""age"":""23"",""gender"":""Female"",""other_gender"":"""",""race"":""Asian"",""other_race"":"""",""ethnicity"":""Non-Hispanic""}","","","","","","","","I genuinely thought about what I'd do in that scenario to achieve the action/feeling and picked the closest action I'd do. ","23","Non-Hispanic","Female","Asian"
