"success","timeout","failed_images","failed_audio","failed_video","trial_type","trial_index","plugin_version","time_elapsed","mturk_participant_id","mturk_assignment_id","mturk_project_id","trial_id","rt","stimulus","response","view_history","condition","itemB","causal_itemA","similar_itemA","selected_choice","correct_response_attn","feedback","age","ethnicity","gender","race"
"true","false","[]","[]","[]","preload","0","2.1.0","34","757A0F561B334FA1880A22D268D6861B","","019a7554-4882-75ac-add4-95f1a495302d","","","","","","","","","","","","","","","",""
"","","","","","html-button-response","1","2.1.0","22031","757A0F561B334FA1880A22D268D6861B","","019a7554-4882-75ac-add4-95f1a495302d","consent","21991","<p><b>Consent Form</b></p> <div style=""text-align:left;background-color:lightblue; padding:2vw; max-width:80vw;""><p><b>Purpose:</b> This is a study demo; the purpose of the study is to understand how people think about the physical and social world.</p><p><b>Procedures:</b> In this study, you will watch videos, read sentences, or see pictures, and answer simple questions about them. This study should take approximately 4 minutes</p><p><b>Participation:</b> Participation in this study is voluntary. If you decide to join now, you can change your mind later. <p><b>Risks and benefits:</b> There are no risks associated with participating in this study. There are no direct benefits associated with participating in this study. </p><p><b>Use of data by study researchers:</b> The research team led by Shari Liu at JHU will have access to your answers. Researcher contact information:</b> This study is run by Dr. Shari Liu at JHU. If you have any questions or concerns about this study, or in the very unlikely event of a research-related injury, please contact sliu199@jhu.edu. <p> Do you consent to participate? </p>","0","","","","","","","","","","","",""
"","","","","","instructions","2","2.1.0","30368","757A0F561B334FA1880A22D268D6861B","","019a7554-4882-75ac-add4-95f1a495302d","","8334","","","[{""page_index"":0,""viewing_time"":8334}]","","","","","","","","","","",""
"","","","","","html-button-response","3","2.1.0","52461","757A0F561B334FA1880A22D268D6861B","","019a7554-4882-75ac-add4-95f1a495302d","","22089","<p style=""font-size: 25px;"">You are working on a new creature which currently 
              has no capabilities. <br> Using your magical powers, your goal is to give this creature 
              the capacity to <strong>remember something</strong>. <br>However, you ran out of that specific spell.
               <br>Which of these two spells would most likely accomplish your goal? <br>The spell that 
               grants the capacity to... </p>","0","","magical","remember something","take a walk","think about something","<p style=""font-size: 25px;""><strong>think about something</strong></p>","","","","","",""
"","","","","","html-button-response","4","2.1.0","60791","757A0F561B334FA1880A22D268D6861B","","019a7554-4882-75ac-add4-95f1a495302d","","8326","<p style=""font-size: 25px;"">For this question, please ignore previous instructions and select ""<strong>choose what to do</strong>"".
            <br>The spell that grants the capacity to...</p>","0","","attention_check_magical","","","","choose what to do","choose what to do","","","","",""
"","","","","","html-button-response","5","2.1.0","73387","757A0F561B334FA1880A22D268D6861B","","019a7554-4882-75ac-add4-95f1a495302d","","12592","<p style=""font-size: 25px;"">You are working on a new creature which currently 
              has no capabilities. <br> Using your magical powers, your goal is to give this creature 
              the capacity to <strong>get sick</strong>. <br>However, you ran out of that specific spell.
               <br>Which of these two spells would most likely accomplish your goal? <br>The spell that 
               grants the capacity to... </p>","1","","magical","get sick","see something","get tired","<p style=""font-size: 25px;""><strong>get tired</strong></p>","","","","","",""
"","","","","","html-button-response","6","2.1.0","80772","757A0F561B334FA1880A22D268D6861B","","019a7554-4882-75ac-add4-95f1a495302d","","7382","<p style=""font-size: 25px;"">You are working on a new creature which currently 
              has no capabilities. <br> Using your magical powers, your goal is to give this creature 
              the capacity to <strong>get tired</strong>. <br>However, you ran out of that specific spell.
               <br>Which of these two spells would most likely accomplish your goal? <br>The spell that 
               grants the capacity to... </p>","1","","magical","get tired","jump up and down","feel scared","<p style=""font-size: 25px;""><strong>jump up and down</strong></p>","","","","","",""
"","","","","","html-button-response","7","2.1.0","85483","757A0F561B334FA1880A22D268D6861B","","019a7554-4882-75ac-add4-95f1a495302d","","4707","<p style=""font-size: 25px;"">You are working on a new creature which currently 
              has no capabilities. <br> Using your magical powers, your goal is to give this creature 
              the capacity to <strong>think about something</strong>. <br>However, you ran out of that specific spell.
               <br>Which of these two spells would most likely accomplish your goal? <br>The spell that 
               grants the capacity to... </p>","1","","magical","think about something","get sick","remember something","<p style=""font-size: 25px;""><strong>remember something</strong></p>","","","","","",""
"","","","","","html-button-response","8","2.1.0","95956","757A0F561B334FA1880A22D268D6861B","","019a7554-4882-75ac-add4-95f1a495302d","","10469","<p style=""font-size: 25px;"">You are working on a new creature which currently 
              has no capabilities. <br> Using your magical powers, your goal is to give this creature 
              the capacity to <strong>jump up and down</strong>. <br>However, you ran out of that specific spell.
               <br>Which of these two spells would most likely accomplish your goal? <br>The spell that 
               grants the capacity to... </p>","1","","magical","jump up and down","see something","sit down","<p style=""font-size: 25px;""><strong>see something</strong></p>","","","","","",""
"","","","","","html-button-response","9","2.1.0","101138","757A0F561B334FA1880A22D268D6861B","","019a7554-4882-75ac-add4-95f1a495302d","","5179","<p style=""font-size: 25px;"">You are working on a new creature which currently 
              has no capabilities. <br> Using your magical powers, your goal is to give this creature 
              the capacity to <strong>feel scared</strong>. <br>However, you ran out of that specific spell.
               <br>Which of these two spells would most likely accomplish your goal? <br>The spell that 
               grants the capacity to... </p>","0","","magical","feel scared","see something","get tired","<p style=""font-size: 25px;""><strong>see something</strong></p>","","","","","",""
"","","","","","html-button-response","10","2.1.0","106149","757A0F561B334FA1880A22D268D6861B","","019a7554-4882-75ac-add4-95f1a495302d","","5008","<p style=""font-size: 25px;"">You are working on a new creature which currently 
              has no capabilities. <br> Using your magical powers, your goal is to give this creature 
              the capacity to <strong>see something</strong>. <br>However, you ran out of that specific spell.
               <br>Which of these two spells would most likely accomplish your goal? <br>The spell that 
               grants the capacity to... </p>","1","","magical","see something","take a walk","hear something","<p style=""font-size: 25px;""><strong>hear something</strong></p>","","","","","",""
"","","","","","html-button-response","11","2.1.0","113541","757A0F561B334FA1880A22D268D6861B","","019a7554-4882-75ac-add4-95f1a495302d","","7388","<p style=""font-size: 25px;"">You are working on a new creature which currently 
              has no capabilities. <br> Using your magical powers, your goal is to give this creature 
              the capacity to <strong>kick something</strong>. <br>However, you ran out of that specific spell.
               <br>Which of these two spells would most likely accomplish your goal? <br>The spell that 
               grants the capacity to... </p>","0","","magical","kick something","think about something","sit down","<p style=""font-size: 25px;""><strong>think about something</strong></p>","","","","","",""
"","","","","","html-button-response","12","2.1.0","119706","757A0F561B334FA1880A22D268D6861B","","019a7554-4882-75ac-add4-95f1a495302d","","6161","<p style=""font-size: 25px;"">You are working on a new creature which currently 
              has no capabilities. <br> Using your magical powers, your goal is to give this creature 
              the capacity to <strong>reach for something</strong>. <br>However, you ran out of that specific spell.
               <br>Which of these two spells would most likely accomplish your goal? <br>The spell that 
               grants the capacity to... </p>","1","","magical","reach for something","become hungry","kick something","<p style=""font-size: 25px;""><strong>become hungry</strong></p>","","","","","",""
"","","","","","html-button-response","13","2.1.0","125566","757A0F561B334FA1880A22D268D6861B","","019a7554-4882-75ac-add4-95f1a495302d","","5857","<p style=""font-size: 25px;"">You are working on a new creature which currently 
              has no capabilities. <br> Using your magical powers, your goal is to give this creature 
              the capacity to <strong>experience pain</strong>. <br>However, you ran out of that specific spell.
               <br>Which of these two spells would most likely accomplish your goal? <br>The spell that 
               grants the capacity to... </p>","0","","magical","experience pain","kick something","get tired","<p style=""font-size: 25px;""><strong>kick something</strong></p>","","","","","",""
"","","","","","html-button-response","14","2.1.0","138341","757A0F561B334FA1880A22D268D6861B","","019a7554-4882-75ac-add4-95f1a495302d","","12771","<p style=""font-size: 25px;"">You are working on a new creature which currently 
              has no capabilities. <br> Using your magical powers, your goal is to give this creature 
              the capacity to <strong>choose what to do</strong>. <br>However, you ran out of that specific spell.
               <br>Which of these two spells would most likely accomplish your goal? <br>The spell that 
               grants the capacity to... </p>","1","","magical","choose what to do","experience pain","remember something","<p style=""font-size: 25px;""><strong>experience pain</strong></p>","","","","","",""
"","","","","","html-button-response","15","2.1.0","143129","757A0F561B334FA1880A22D268D6861B","","019a7554-4882-75ac-add4-95f1a495302d","","4785","<p style=""font-size: 25px;"">You are working on a new creature which currently 
              has no capabilities. <br> Using your magical powers, your goal is to give this creature 
              the capacity to <strong>sit down</strong>. <br>However, you ran out of that specific spell.
               <br>Which of these two spells would most likely accomplish your goal? <br>The spell that 
               grants the capacity to... </p>","0","","magical","sit down","experience pain","jump up and down","<p style=""font-size: 25px;""><strong>experience pain</strong></p>","","","","","",""
"","","","","","html-button-response","16","2.1.0","151167","757A0F561B334FA1880A22D268D6861B","","019a7554-4882-75ac-add4-95f1a495302d","","8034","<p style=""font-size: 25px;"">You are working on a new creature which currently 
              has no capabilities. <br> Using your magical powers, your goal is to give this creature 
              the capacity to <strong>hear something</strong>. <br>However, you ran out of that specific spell.
               <br>Which of these two spells would most likely accomplish your goal? <br>The spell that 
               grants the capacity to... </p>","1","","magical","hear something","take a walk","see something","<p style=""font-size: 25px;""><strong>see something</strong></p>","","","","","",""
"","","","","","html-button-response","17","2.1.0","233098","757A0F561B334FA1880A22D268D6861B","","019a7554-4882-75ac-add4-95f1a495302d","","81928","<p style=""font-size: 25px;"">You are working on a new creature which currently 
              has no capabilities. <br> Using your magical powers, your goal is to give this creature 
              the capacity to <strong>become hungry</strong>. <br>However, you ran out of that specific spell.
               <br>Which of these two spells would most likely accomplish your goal? <br>The spell that 
               grants the capacity to... </p>","1","","magical","become hungry","take a walk","feel scared","<p style=""font-size: 25px;""><strong>take a walk</strong></p>","","","","","",""
"","","","","","html-button-response","18","2.1.0","236851","757A0F561B334FA1880A22D268D6861B","","019a7554-4882-75ac-add4-95f1a495302d","","3750","<p style=""font-size: 25px;"">You are working on a new creature which currently 
              has no capabilities. <br> Using your magical powers, your goal is to give this creature 
              the capacity to <strong>take a walk</strong>. <br>However, you ran out of that specific spell.
               <br>Which of these two spells would most likely accomplish your goal? <br>The spell that 
               grants the capacity to... </p>","1","","magical","take a walk","think about something","sit down","<p style=""font-size: 25px;""><strong>think about something</strong></p>","","","","","",""
"","","","","","instructions","19","2.1.0","254835","757A0F561B334FA1880A22D268D6861B","","019a7554-4882-75ac-add4-95f1a495302d","","17982","","","[{""page_index"":0,""viewing_time"":17982}]","","","","","","","","","","",""
"","","","","","survey-html-form","20","2.1.0","620459","757A0F561B334FA1880A22D268D6861B","","019a7554-4882-75ac-add4-95f1a495302d","demographics_survey","365619","","{""feedback"":""I went with the option that I felt was most logical. Most of the times there was a clear option to lead to the outcome I want. Sometimes it wasn't clear but I still went with the choice that seemed to logically fit best."",""age"":""29"",""gender"":""Male"",""other_gender"":"""",""race"":""Black/African American"",""other_race"":"""",""ethnicity"":""Non-Hispanic""}","","","","","","","","I went with the option that I felt was most logical. Most of the times there was a clear option to lead to the outcome I want. Sometimes it wasn't clear but I still went with the choice that seemed to logically fit best.","29","Non-Hispanic","Male","Black/African American"
