"success","timeout","failed_images","failed_audio","failed_video","trial_type","trial_index","plugin_version","time_elapsed","mturk_participant_id","mturk_assignment_id","mturk_project_id","trial_id","rt","stimulus","response","view_history","condition","itemB","causal_itemA","similar_itemA","selected_choice","correct_response_attn","feedback","age","ethnicity","gender","race"
"true","false","[]","[]","[]","preload","0","2.1.0","7","F2E00CD3924E4A17917E2E3DC5BF0C65","","019a7554-4882-75ac-add4-95f1a495302d","","","","","","","","","","","","","","","",""
"","","","","","html-button-response","1","2.1.0","40988","F2E00CD3924E4A17917E2E3DC5BF0C65","","019a7554-4882-75ac-add4-95f1a495302d","consent","40978","<p><b>Consent Form</b></p> <div style=""text-align:left;background-color:lightblue; padding:2vw; max-width:80vw;""><p><b>Purpose:</b> This is a study demo; the purpose of the study is to understand how people think about the physical and social world.</p><p><b>Procedures:</b> In this study, you will watch videos, read sentences, or see pictures, and answer simple questions about them. This study should take approximately 4 minutes</p><p><b>Participation:</b> Participation in this study is voluntary. If you decide to join now, you can change your mind later. <p><b>Risks and benefits:</b> There are no risks associated with participating in this study. There are no direct benefits associated with participating in this study. </p><p><b>Use of data by study researchers:</b> The research team led by Shari Liu at JHU will have access to your answers. Researcher contact information:</b> This study is run by Dr. Shari Liu at JHU. If you have any questions or concerns about this study, or in the very unlikely event of a research-related injury, please contact sliu199@jhu.edu. <p> Do you consent to participate? </p>","0","","","","","","","","","","","",""
"","","","","","instructions","2","2.1.0","46947","F2E00CD3924E4A17917E2E3DC5BF0C65","","019a7554-4882-75ac-add4-95f1a495302d","","5958","","","[{""page_index"":0,""viewing_time"":5958}]","","","","","","","","","","",""
"","","","","","html-button-response","3","2.1.0","144821","F2E00CD3924E4A17917E2E3DC5BF0C65","","019a7554-4882-75ac-add4-95f1a495302d","","97871","<p style=""font-size: 25px;"">Which of these actions would you do to make someone 
                <strong>kick something</strong>? <br>I would make them... </p>","0","","ordinary","kick something","think about something","sit down","<p style=""font-size: 25px;""><strong>think about something</strong></p>","","","","","",""
"","","","","","html-button-response","4","2.1.0","159061","F2E00CD3924E4A17917E2E3DC5BF0C65","","019a7554-4882-75ac-add4-95f1a495302d","","14239","<p style=""font-size: 25px;"">Which of these actions would you do to make someone 
                <strong>see something</strong>? <br>I would make them... </p>","0","","ordinary","see something","take a walk","hear something","<p style=""font-size: 25px;""><strong>take a walk</strong></p>","","","","","",""
"","","","","","html-button-response","5","2.1.0","162085","F2E00CD3924E4A17917E2E3DC5BF0C65","","019a7554-4882-75ac-add4-95f1a495302d","","3022","<p style=""font-size: 25px;"">Which of these actions would you do to make someone 
                <strong>experience pain</strong>? <br>I would make them... </p>","1","","ordinary","experience pain","kick something","get tired","<p style=""font-size: 25px;""><strong>kick something</strong></p>","","","","","",""
"","","","","","html-button-response","6","2.1.0","166684","F2E00CD3924E4A17917E2E3DC5BF0C65","","019a7554-4882-75ac-add4-95f1a495302d","","4599","<p style=""font-size: 25px;"">Which of these actions would you do to make someone 
                <strong>sit down</strong>? <br>I would make them... </p>","0","","ordinary","sit down","experience pain","jump up and down","<p style=""font-size: 25px;""><strong>experience pain</strong></p>","","","","","",""
"","","","","","html-button-response","7","2.1.0","169372","F2E00CD3924E4A17917E2E3DC5BF0C65","","019a7554-4882-75ac-add4-95f1a495302d","","2687","<p style=""font-size: 25px;"">Which of these actions would you do to make someone 
                <strong>get tired</strong>? <br>I would make them... </p>","0","","ordinary","get tired","jump up and down","feel scared","<p style=""font-size: 25px;""><strong>jump up and down</strong></p>","","","","","",""
"","","","","","html-button-response","8","2.1.0","174101","F2E00CD3924E4A17917E2E3DC5BF0C65","","019a7554-4882-75ac-add4-95f1a495302d","","4727","<p style=""font-size: 25px;"">For this question, please ignore previous instructions and select ""<strong>choose what to do</strong>"".
            <br>I would make them...</p>","0","","attention_check_ordinary","","","","choose what to do","choose what to do","","","","",""
"","","","","","html-button-response","9","2.1.0","185148","F2E00CD3924E4A17917E2E3DC5BF0C65","","019a7554-4882-75ac-add4-95f1a495302d","","11047","<p style=""font-size: 25px;"">Which of these actions would you do to make someone 
                <strong>choose what to do</strong>? <br>I would make them... </p>","0","","ordinary","choose what to do","experience pain","remember something","<p style=""font-size: 25px;""><strong>experience pain</strong></p>","","","","","",""
"","","","","","html-button-response","10","2.1.0","189404","F2E00CD3924E4A17917E2E3DC5BF0C65","","019a7554-4882-75ac-add4-95f1a495302d","","4255","<p style=""font-size: 25px;"">Which of these actions would you do to make someone 
                <strong>remember something</strong>? <br>I would make them... </p>","1","","ordinary","remember something","take a walk","think about something","<p style=""font-size: 25px;""><strong>think about something</strong></p>","","","","","",""
"","","","","","html-button-response","11","2.1.0","196860","F2E00CD3924E4A17917E2E3DC5BF0C65","","019a7554-4882-75ac-add4-95f1a495302d","","7454","<p style=""font-size: 25px;"">Which of these actions would you do to make someone 
                <strong>jump up and down</strong>? <br>I would make them... </p>","0","","ordinary","jump up and down","see something","sit down","<p style=""font-size: 25px;""><strong>see something</strong></p>","","","","","",""
"","","","","","html-button-response","12","2.1.0","199444","F2E00CD3924E4A17917E2E3DC5BF0C65","","019a7554-4882-75ac-add4-95f1a495302d","","2583","<p style=""font-size: 25px;"">Which of these actions would you do to make someone 
                <strong>feel scared</strong>? <br>I would make them... </p>","0","","ordinary","feel scared","see something","get tired","<p style=""font-size: 25px;""><strong>see something</strong></p>","","","","","",""
"","","","","","html-button-response","13","2.1.0","204356","F2E00CD3924E4A17917E2E3DC5BF0C65","","019a7554-4882-75ac-add4-95f1a495302d","","4911","<p style=""font-size: 25px;"">Which of these actions would you do to make someone 
                <strong>get sick</strong>? <br>I would make them... </p>","0","","ordinary","get sick","see something","get tired","<p style=""font-size: 25px;""><strong>get tired</strong></p>","","","","","",""
"","","","","","html-button-response","14","2.1.0","208885","F2E00CD3924E4A17917E2E3DC5BF0C65","","019a7554-4882-75ac-add4-95f1a495302d","","4527","<p style=""font-size: 25px;"">Which of these actions would you do to make someone 
                <strong>hear something</strong>? <br>I would make them... </p>","1","","ordinary","hear something","take a walk","see something","<p style=""font-size: 25px;""><strong>take a walk</strong></p>","","","","","",""
"","","","","","html-button-response","15","2.1.0","211629","F2E00CD3924E4A17917E2E3DC5BF0C65","","019a7554-4882-75ac-add4-95f1a495302d","","2743","<p style=""font-size: 25px;"">Which of these actions would you do to make someone 
                <strong>reach for something</strong>? <br>I would make them... </p>","1","","ordinary","reach for something","become hungry","kick something","<p style=""font-size: 25px;""><strong>become hungry</strong></p>","","","","","",""
"","","","","","html-button-response","16","2.1.0","214109","F2E00CD3924E4A17917E2E3DC5BF0C65","","019a7554-4882-75ac-add4-95f1a495302d","","2479","<p style=""font-size: 25px;"">Which of these actions would you do to make someone 
                <strong>think about something</strong>? <br>I would make them... </p>","1","","ordinary","think about something","get sick","remember something","<p style=""font-size: 25px;""><strong>remember something</strong></p>","","","","","",""
"","","","","","html-button-response","17","2.1.0","216205","F2E00CD3924E4A17917E2E3DC5BF0C65","","019a7554-4882-75ac-add4-95f1a495302d","","2095","<p style=""font-size: 25px;"">Which of these actions would you do to make someone 
                <strong>become hungry</strong>? <br>I would make them... </p>","0","","ordinary","become hungry","take a walk","feel scared","<p style=""font-size: 25px;""><strong>take a walk</strong></p>","","","","","",""
"","","","","","html-button-response","18","2.1.0","226870","F2E00CD3924E4A17917E2E3DC5BF0C65","","019a7554-4882-75ac-add4-95f1a495302d","","10664","<p style=""font-size: 25px;"">Which of these actions would you do to make someone 
                <strong>take a walk</strong>? <br>I would make them... </p>","0","","ordinary","take a walk","think about something","sit down","<p style=""font-size: 25px;""><strong>think about something</strong></p>","","","","","",""
"","","","","","instructions","19","2.1.0","228789","F2E00CD3924E4A17917E2E3DC5BF0C65","","019a7554-4882-75ac-add4-95f1a495302d","","1919","","","[{""page_index"":0,""viewing_time"":1919}]","","","","","","","","","","",""
"","","","","","survey-html-form","20","2.1.0","246286","F2E00CD3924E4A17917E2E3DC5BF0C65","","019a7554-4882-75ac-add4-95f1a495302d","demographics_survey","17495","","{""feedback"":"""",""age"":""52"",""gender"":""Male"",""other_gender"":"""",""race"":""Black/African American"",""other_race"":"""",""ethnicity"":""Non-Hispanic""}","","","","","","","","","52","Non-Hispanic","Male","Black/African American"
