"success","timeout","failed_images","failed_audio","failed_video","trial_type","trial_index","plugin_version","time_elapsed","mturk_participant_id","mturk_assignment_id","mturk_project_id","trial_id","rt","stimulus","response","view_history","condition","itemB","causal_itemA","similar_itemA","selected_choice","correct_response_attn","feedback","age","ethnicity","gender","race"
"true","false","[]","[]","[]","preload","0","2.1.0","8","test_2jhqhy7mpa","","","","","","","","","","","","","","","","","",""
"","","","","","html-button-response","1","2.1.0","3381","test_2jhqhy7mpa","","","consent","3371","<p><b>Consent Form</b></p> <div style=""text-align:left;background-color:lightblue; padding:2vw; max-width:80vw;""><p><b>Purpose:</b> This is a study demo; the purpose of the study is to understand how people think about the physical and social world.</p><p><b>Procedures:</b> In this study, you will watch videos, read sentences, or see pictures, and answer simple questions about them. This study should take approximately 4 minutes</p><p><b>Participation:</b> Participation in this study is voluntary. If you decide to join now, you can change your mind later. <p><b>Risks and benefits:</b> There are no risks associated with participating in this study. There are no direct benefits associated with participating in this study. </p><p><b>Use of data by study researchers:</b> The research team led by Shari Liu at JHU will have access to your answers. Researcher contact information:</b> This study is run by Dr. Shari Liu at JHU. If you have any questions or concerns about this study, or in the very unlikely event of a research-related injury, please contact sliu199@jhu.edu. <p> Do you consent to participate? </p>","0","","","","","","","","","","","",""
"","","","","","instructions","2","2.1.0","50110","test_2jhqhy7mpa","","","","46719","","","[{""page_index"":0,""viewing_time"":46719}]","","","","","","","","","","",""
"","","","","","html-button-response","3","2.1.0","57461","test_2jhqhy7mpa","","","","7350","<p style=""font-size: 25px;"">Suppose someone told you about a creature that could <strong>think about something</strong>. <br>Which of these two other abilities do you think the creature would also have?</p>","0","","similarity","think about something","get sick","remember something","<p style=""font-size: 20px;"">The ability to <strong>remember something</strong></p>","","","","","",""
"","","","","","html-button-response","4","2.1.0","64150","test_2jhqhy7mpa","","","","6687","<p style=""font-size: 25px;"">Suppose someone told you about a creature that could <strong>experience pain</strong>. <br>Which of these two other abilities do you think the creature would also have?</p>","1","","similarity","experience pain","kick something","get tired","<p style=""font-size: 20px;"">The ability to <strong>get tired</strong></p>","","","","","",""
"","","","","","html-button-response","5","2.1.0","76026","test_2jhqhy7mpa","","","","11875","<p style=""font-size: 25px;"">Suppose someone told you about a creature that could <strong>hear something</strong>. <br>Which of these two other abilities do you think the creature would also have?</p>","1","","similarity","hear something","take a walk","see something","<p style=""font-size: 20px;"">The ability to <strong>take a walk</strong></p>","","","","","",""
"","","","","","html-button-response","6","2.1.0","80950","test_2jhqhy7mpa","","","","4922","<p style=""font-size: 25px;"">Suppose someone told you about a creature that could <strong>see something</strong>. <br>Which of these two other abilities do you think the creature would also have?</p>","0","","similarity","see something","take a walk","hear something","<p style=""font-size: 20px;"">The ability to <strong>take a walk</strong></p>","","","","","",""
"","","","","","html-button-response","7","2.1.0","84257","test_2jhqhy7mpa","","","","3305","<p style=""font-size: 25px;"">Suppose someone told you about a creature that could <strong>sit down</strong>. <br>Which of these two other abilities do you think the creature would also have?</p>","1","","similarity","sit down","experience pain","jump up and down","<p style=""font-size: 20px;"">The ability to <strong>jump up and down</strong></p>","","","","","",""
"","","","","","html-button-response","8","2.1.0","86503","test_2jhqhy7mpa","","","","2245","<p style=""font-size: 25px;"">Suppose someone told you about a creature that could <strong>get sick</strong>. <br>Which of these two other abilities do you think the creature would also have?</p>","0","","similarity","get sick","see something","get tired","<p style=""font-size: 20px;"">The ability to <strong>get tired</strong></p>","","","","","",""
"","","","","","html-button-response","9","2.1.0","90733","test_2jhqhy7mpa","","","","4228","<p style=""font-size: 25px;"">Suppose someone told you about a creature that could <strong>get tired</strong>. <br>Which of these two other abilities do you think the creature would also have?</p>","0","","similarity","get tired","jump up and down","feel scared","<p style=""font-size: 20px;"">The ability to <strong>jump up and down</strong></p>","","","","","",""
"","","","","","html-button-response","10","2.1.0","95552","test_2jhqhy7mpa","","","","4818","<p style=""font-size: 25px;"">Suppose someone told you about a creature that could <strong>take a walk</strong>. <br>Which of these two other abilities do you think the creature would also have?</p>","0","","similarity","take a walk","think about something","sit down","<p style=""font-size: 20px;"">The ability to <strong>sit down</strong></p>","","","","","",""
"","","","","","html-button-response","11","2.1.0","99621","test_2jhqhy7mpa","","","","4068","<p style=""font-size: 25px;"">Suppose someone told you about a creature that could <strong>kick something</strong>. <br>Which of these two other abilities do you think the creature would also have?</p>","1","","similarity","kick something","think about something","sit down","<p style=""font-size: 20px;"">The ability to <strong>think about something</strong></p>","","","","","",""
"","","","","","html-button-response","12","2.1.0","102728","test_2jhqhy7mpa","","","","3106","<p style=""font-size: 25px;"">Suppose someone told you about a creature that could <strong>feel scared</strong>. <br>Which of these two other abilities do you think the creature would also have?</p>","0","","similarity","feel scared","see something","get tired","<p style=""font-size: 20px;"">The ability to <strong>see something</strong></p>","","","","","",""
"","","","","","html-button-response","13","2.1.0","144993","test_2jhqhy7mpa","","","","42253","<p style=""font-size: 25px;"">Suppose someone told you about a creature that could <strong>remember something</strong>. <br>Which of these two other abilities do you think the creature would also have?</p>","1","","similarity","remember something","take a walk","think about something","<p style=""font-size: 20px;"">The ability to <strong>think about something</strong></p>","","","","","",""
"","","","","","html-button-response","14","2.1.0","148695","test_2jhqhy7mpa","","","","3701","<p style=""font-size: 25px;"">Suppose someone told you about a creature that could <strong>choose what to do</strong>. <br>Which of these two other abilities do you think the creature would also have?</p>","1","","similarity","choose what to do","experience pain","remember something","<p style=""font-size: 20px;"">The ability to <strong>remember something</strong></p>","","","","","",""
"","","","","","html-button-response","15","2.1.0","150790","test_2jhqhy7mpa","","","","2094","<p style=""font-size: 25px;"">Suppose someone told you about a creature that could <strong>jump up and down</strong>. <br>Which of these two other abilities do you think the creature would also have?</p>","1","","similarity","jump up and down","see something","sit down","<p style=""font-size: 20px;"">The ability to <strong>sit down</strong></p>","","","","","",""
"","","","","","html-button-response","16","2.1.0","156392","test_2jhqhy7mpa","","","","5601","<p style=""font-size: 25px;"">For this question, please select ""The ability to <strong>choose what to do</strong>""</p>","0","","attention_check","","","","The ability to choose what to do","choose what to do","","","","",""
"","","","","","html-button-response","17","2.1.0","161704","test_2jhqhy7mpa","","","","5311","<p style=""font-size: 25px;"">Suppose someone told you about a creature that could <strong>become hungry</strong>. <br>Which of these two other abilities do you think the creature would also have?</p>","1","","similarity","become hungry","take a walk","feel scared","<p style=""font-size: 20px;"">The ability to <strong>take a walk</strong></p>","","","","","",""
"","","","","","html-button-response","18","2.1.0","164900","test_2jhqhy7mpa","","","","3195","<p style=""font-size: 25px;"">Suppose someone told you about a creature that could <strong>reach for something</strong>. <br>Which of these two other abilities do you think the creature would also have?</p>","1","","similarity","reach for something","become hungry","kick something","<p style=""font-size: 20px;"">The ability to <strong>kick something</strong></p>","","","","","",""
"","","","","","instructions","19","2.1.0","171881","test_2jhqhy7mpa","","","","6981","","","[{""page_index"":0,""viewing_time"":6981}]","","","","","","","","","","",""
"","","","","","survey-html-form","20","2.1.0","225307","test_2jhqhy7mpa","","","demographics_survey","53416","","{""feedback"":""I tried to answer as logical as possible. Ie. It can probably sit if it can also jump up and down. "",""age"":""37"",""gender"":""Male"",""other_gender"":"""",""race"":""White"",""other_race"":"""",""ethnicity"":""Non-Hispanic""}","","","","","","","","I tried to answer as logical as possible. Ie. It can probably sit if it can also jump up and down. ","37","Non-Hispanic","Male","White"
