"success","timeout","failed_images","failed_audio","failed_video","trial_type","trial_index","plugin_version","time_elapsed","mturk_participant_id","mturk_assignment_id","mturk_project_id","trial_id","rt","stimulus","response","view_history","condition","itemB","causal_itemA","similar_itemA","selected_choice","correct_response_attn","feedback","age","ethnicity","gender","race"
"true","false","[]","[]","[]","preload","0","2.1.0","5","test_wz8x8u01qe","","","","","","","","","","","","","","","","","",""
"","","","","","html-button-response","1","2.1.0","683199","test_wz8x8u01qe","","","consent","683192","<p><b>Consent Form</b></p> <div style=""text-align:left;background-color:lightblue; padding:2vw; max-width:80vw;""><p><b>Purpose:</b> This is a study demo; the purpose of the study is to understand how people think about the physical and social world.</p><p><b>Procedures:</b> In this study, you will watch videos, read sentences, or see pictures, and answer simple questions about them. This study should take approximately 4 minutes</p><p><b>Participation:</b> Participation in this study is voluntary. If you decide to join now, you can change your mind later. <p><b>Risks and benefits:</b> There are no risks associated with participating in this study. There are no direct benefits associated with participating in this study. </p><p><b>Use of data by study researchers:</b> The research team led by Shari Liu at JHU will have access to your answers. Researcher contact information:</b> This study is run by Dr. Shari Liu at JHU. If you have any questions or concerns about this study, or in the very unlikely event of a research-related injury, please contact sliu199@jhu.edu. <p> Do you consent to participate? </p>","0","","","","","","","","","","","",""
"","","","","","instructions","2","2.1.0","708883","test_wz8x8u01qe","","","","25683","","","[{""page_index"":0,""viewing_time"":25683}]","","","","","","","","","","",""
"","","","","","html-button-response","3","2.1.0","716163","test_wz8x8u01qe","","","","7279","<p style=""font-size: 25px;"">Which of these actions would you do to make someone <strong>think about something</strong>?</p>","0","","intervention","think about something","get sick","remember something","<p style=""font-size: 20px;"">I would make them <strong>remember something</strong></p>","","","","","",""
"","","","","","html-button-response","4","2.1.0","719590","test_wz8x8u01qe","","","","3425","<p style=""font-size: 25px;"">Which of these actions would you do to make someone <strong>reach for something</strong>?</p>","1","","intervention","reach for something","become hungry","kick something","<p style=""font-size: 20px;"">I would make them <strong>become hungry</strong></p>","","","","","",""
"","","","","","html-button-response","5","2.1.0","721608","test_wz8x8u01qe","","","","2017","<p style=""font-size: 25px;"">Which of these actions would you do to make someone <strong>get tired</strong>?</p>","0","","intervention","get tired","jump up and down","feel scared","<p style=""font-size: 20px;"">I would make them <strong>jump up and down</strong></p>","","","","","",""
"","","","","","html-button-response","6","2.1.0","724970","test_wz8x8u01qe","","","","3360","<p style=""font-size: 25px;"">Which of these actions would you do to make someone <strong>choose what to do</strong>?</p>","0","","intervention","choose what to do","experience pain","remember something","<p style=""font-size: 20px;"">I would make them <strong>remember something</strong></p>","","","","","",""
"","","","","","html-button-response","7","2.1.0","729070","test_wz8x8u01qe","","","","4098","<p style=""font-size: 25px;"">For this question, please select ""I would make them <strong>""choose what to do""</strong>""</p>","0","","attention_check","","","","I would make them choose what to do","choose what to do","","","","",""
"","","","","","html-button-response","8","2.1.0","731840","test_wz8x8u01qe","","","","2767","<p style=""font-size: 25px;"">Which of these actions would you do to make someone <strong>jump up and down</strong>?</p>","1","","intervention","jump up and down","see something","sit down","<p style=""font-size: 20px;"">I would make them <strong>see something</strong></p>","","","","","",""
"","","","","","html-button-response","9","2.1.0","734154","test_wz8x8u01qe","","","","2313","<p style=""font-size: 25px;"">Which of these actions would you do to make someone <strong>sit down</strong>?</p>","1","","intervention","sit down","experience pain","jump up and down","<p style=""font-size: 20px;"">I would make them <strong>experience pain</strong></p>","","","","","",""
"","","","","","html-button-response","10","2.1.0","736712","test_wz8x8u01qe","","","","2556","<p style=""font-size: 25px;"">Which of these actions would you do to make someone <strong>feel scared</strong>?</p>","0","","intervention","feel scared","see something","get tired","<p style=""font-size: 20px;"">I would make them <strong>see something</strong></p>","","","","","",""
"","","","","","html-button-response","11","2.1.0","743792","test_wz8x8u01qe","","","","7078","<p style=""font-size: 25px;"">Which of these actions would you do to make someone <strong>hear something</strong>?</p>","0","","intervention","hear something","take a walk","see something","<p style=""font-size: 20px;"">I would make them <strong>take a walk</strong></p>","","","","","",""
"","","","","","html-button-response","12","2.1.0","746067","test_wz8x8u01qe","","","","2274","<p style=""font-size: 25px;"">Which of these actions would you do to make someone <strong>take a walk</strong>?</p>","1","","intervention","take a walk","think about something","sit down","<p style=""font-size: 20px;"">I would make them <strong>think about something</strong></p>","","","","","",""
"","","","","","html-button-response","13","2.1.0","747741","test_wz8x8u01qe","","","","1673","<p style=""font-size: 25px;"">Which of these actions would you do to make someone <strong>experience pain</strong>?</p>","1","","intervention","experience pain","kick something","get tired","<p style=""font-size: 20px;"">I would make them <strong>kick something</strong></p>","","","","","",""
"","","","","","html-button-response","14","2.1.0","750152","test_wz8x8u01qe","","","","2410","<p style=""font-size: 25px;"">Which of these actions would you do to make someone <strong>see something</strong>?</p>","1","","intervention","see something","take a walk","hear something","<p style=""font-size: 20px;"">I would make them <strong>take a walk</strong></p>","","","","","",""
"","","","","","html-button-response","15","2.1.0","755318","test_wz8x8u01qe","","","","5165","<p style=""font-size: 25px;"">Which of these actions would you do to make someone <strong>get sick</strong>?</p>","0","","intervention","get sick","see something","get tired","<p style=""font-size: 20px;"">I would make them <strong>get tired</strong></p>","","","","","",""
"","","","","","html-button-response","16","2.1.0","759849","test_wz8x8u01qe","","","","4530","<p style=""font-size: 25px;"">Which of these actions would you do to make someone <strong>remember something</strong>?</p>","1","","intervention","remember something","take a walk","think about something","<p style=""font-size: 20px;"">I would make them <strong>think about something</strong></p>","","","","","",""
"","","","","","html-button-response","17","2.1.0","762718","test_wz8x8u01qe","","","","2867","<p style=""font-size: 25px;"">Which of these actions would you do to make someone <strong>kick something</strong>?</p>","0","","intervention","kick something","think about something","sit down","<p style=""font-size: 20px;"">I would make them <strong>think about something</strong></p>","","","","","",""
"","","","","","html-button-response","18","2.1.0","766184","test_wz8x8u01qe","","","","3465","<p style=""font-size: 25px;"">Which of these actions would you do to make someone <strong>become hungry</strong>?</p>","1","","intervention","become hungry","take a walk","feel scared","<p style=""font-size: 20px;"">I would make them <strong>take a walk</strong></p>","","","","","",""
"","","","","","instructions","19","2.1.0","769582","test_wz8x8u01qe","","","","3397","","","[{""page_index"":0,""viewing_time"":3397}]","","","","","","","","","","",""
"","","","","","survey-html-form","20","2.1.0","779184","test_wz8x8u01qe","","","demographics_survey","9600","","{""feedback"":"""",""age"":""52"",""gender"":""Female"",""other_gender"":"""",""race"":""White"",""other_race"":"""",""ethnicity"":""Non-Hispanic""}","","","","","","","","","52","Non-Hispanic","Female","White"
