"success","timeout","failed_images","failed_audio","failed_video","trial_type","trial_index","plugin_version","time_elapsed","mturk_participant_id","mturk_assignment_id","mturk_project_id","trial_id","rt","stimulus","response","view_history","condition","itemB","causal_itemA","similar_itemA","selected_choice","correct_response_attn","feedback","age","ethnicity","gender","race"
"true","false","[]","[]","[]","preload","0","2.1.0","5","test_ykkdfkp81r","","","","","","","","","","","","","","","","","",""
"","","","","","html-button-response","1","2.1.0","6637","test_ykkdfkp81r","","","consent","6630","<p><b>Consent Form</b></p> <div style=""text-align:left;background-color:lightblue; padding:2vw; max-width:80vw;""><p><b>Purpose:</b> This is a study demo; the purpose of the study is to understand how people think about the physical and social world.</p><p><b>Procedures:</b> In this study, you will watch videos, read sentences, or see pictures, and answer simple questions about them. This study should take approximately 4 minutes</p><p><b>Participation:</b> Participation in this study is voluntary. If you decide to join now, you can change your mind later. <p><b>Risks and benefits:</b> There are no risks associated with participating in this study. There are no direct benefits associated with participating in this study. </p><p><b>Use of data by study researchers:</b> The research team led by Shari Liu at JHU will have access to your answers. Researcher contact information:</b> This study is run by Dr. Shari Liu at JHU. If you have any questions or concerns about this study, or in the very unlikely event of a research-related injury, please contact sliu199@jhu.edu. <p> Do you consent to participate? </p>","0","","","","","","","","","","","",""
"","","","","","instructions","2","2.1.0","13530","test_ykkdfkp81r","","","","6892","","","[{""page_index"":0,""viewing_time"":6892}]","","","","","","","","","","",""
"","","","","","html-button-response","3","2.1.0","22575","test_ykkdfkp81r","","","","9043","<p style=""font-size: 25px;"">Suppose someone told you about a creature that could <strong>think about something</strong>. <br>Which of these two other abilities do you think the creature would also have?</p>","0","","similarity","think about something","get sick","remember something","<p style=""font-size: 20px;"">The ability to <strong>remember something</strong></p>","","","","","",""
"","","","","","html-button-response","4","2.1.0","27812","test_ykkdfkp81r","","","","5237","<p style=""font-size: 25px;"">Suppose someone told you about a creature that could <strong>reach for something</strong>. <br>Which of these two other abilities do you think the creature would also have?</p>","1","","similarity","reach for something","become hungry","kick something","<p style=""font-size: 20px;"">The ability to <strong>kick something</strong></p>","","","","","",""
"","","","","","html-button-response","5","2.1.0","30452","test_ykkdfkp81r","","","","2638","<p style=""font-size: 25px;"">For this question, please select ""The ability to <strong>choose what to do</strong>""</p>","0","","attention_check","","","","The ability to choose what to do","choose what to do","","","","",""
"","","","","","html-button-response","6","2.1.0","35029","test_ykkdfkp81r","","","","4576","<p style=""font-size: 25px;"">Suppose someone told you about a creature that could <strong>choose what to do</strong>. <br>Which of these two other abilities do you think the creature would also have?</p>","1","","similarity","choose what to do","experience pain","remember something","<p style=""font-size: 20px;"">The ability to <strong>remember something</strong></p>","","","","","",""
"","","","","","html-button-response","7","2.1.0","39551","test_ykkdfkp81r","","","","4520","<p style=""font-size: 25px;"">Suppose someone told you about a creature that could <strong>get tired</strong>. <br>Which of these two other abilities do you think the creature would also have?</p>","0","","similarity","get tired","jump up and down","feel scared","<p style=""font-size: 20px;"">The ability to <strong>feel scared</strong></p>","","","","","",""
"","","","","","html-button-response","8","2.1.0","41134","test_ykkdfkp81r","","","","1582","<p style=""font-size: 25px;"">Suppose someone told you about a creature that could <strong>see something</strong>. <br>Which of these two other abilities do you think the creature would also have?</p>","1","","similarity","see something","take a walk","hear something","<p style=""font-size: 20px;"">The ability to <strong>hear something</strong></p>","","","","","",""
"","","","","","html-button-response","9","2.1.0","43469","test_ykkdfkp81r","","","","2333","<p style=""font-size: 25px;"">Suppose someone told you about a creature that could <strong>sit down</strong>. <br>Which of these two other abilities do you think the creature would also have?</p>","1","","similarity","sit down","experience pain","jump up and down","<p style=""font-size: 20px;"">The ability to <strong>jump up and down</strong></p>","","","","","",""
"","","","","","html-button-response","10","2.1.0","45279","test_ykkdfkp81r","","","","1807","<p style=""font-size: 25px;"">Suppose someone told you about a creature that could <strong>remember something</strong>. <br>Which of these two other abilities do you think the creature would also have?</p>","1","","similarity","remember something","take a walk","think about something","<p style=""font-size: 20px;"">The ability to <strong>think about something</strong></p>","","","","","",""
"","","","","","html-button-response","11","2.1.0","49579","test_ykkdfkp81r","","","","4299","<p style=""font-size: 25px;"">Suppose someone told you about a creature that could <strong>take a walk</strong>. <br>Which of these two other abilities do you think the creature would also have?</p>","1","","similarity","take a walk","think about something","sit down","<p style=""font-size: 20px;"">The ability to <strong>sit down</strong></p>","","","","","",""
"","","","","","html-button-response","12","2.1.0","50955","test_ykkdfkp81r","","","","1374","<p style=""font-size: 25px;"">Suppose someone told you about a creature that could <strong>hear something</strong>. <br>Which of these two other abilities do you think the creature would also have?</p>","1","","similarity","hear something","take a walk","see something","<p style=""font-size: 20px;"">The ability to <strong>see something</strong></p>","","","","","",""
"","","","","","html-button-response","13","2.1.0","53607","test_ykkdfkp81r","","","","2651","<p style=""font-size: 25px;"">Suppose someone told you about a creature that could <strong>become hungry</strong>. <br>Which of these two other abilities do you think the creature would also have?</p>","0","","similarity","become hungry","take a walk","feel scared","<p style=""font-size: 20px;"">The ability to <strong>feel scared</strong></p>","","","","","",""
"","","","","","html-button-response","14","2.1.0","55963","test_ykkdfkp81r","","","","2354","<p style=""font-size: 25px;"">Suppose someone told you about a creature that could <strong>jump up and down</strong>. <br>Which of these two other abilities do you think the creature would also have?</p>","0","","similarity","jump up and down","see something","sit down","<p style=""font-size: 20px;"">The ability to <strong>sit down</strong></p>","","","","","",""
"","","","","","html-button-response","15","2.1.0","61020","test_ykkdfkp81r","","","","5055","<p style=""font-size: 25px;"">Suppose someone told you about a creature that could <strong>feel scared</strong>. <br>Which of these two other abilities do you think the creature would also have?</p>","0","","similarity","feel scared","see something","get tired","<p style=""font-size: 20px;"">The ability to <strong>get tired</strong></p>","","","","","",""
"","","","","","html-button-response","16","2.1.0","69133","test_ykkdfkp81r","","","","8112","<p style=""font-size: 25px;"">Suppose someone told you about a creature that could <strong>kick something</strong>. <br>Which of these two other abilities do you think the creature would also have?</p>","0","","similarity","kick something","think about something","sit down","<p style=""font-size: 20px;"">The ability to <strong>think about something</strong></p>","","","","","",""
"","","","","","html-button-response","17","2.1.0","71537","test_ykkdfkp81r","","","","2403","<p style=""font-size: 25px;"">Suppose someone told you about a creature that could <strong>get sick</strong>. <br>Which of these two other abilities do you think the creature would also have?</p>","0","","similarity","get sick","see something","get tired","<p style=""font-size: 20px;"">The ability to <strong>get tired</strong></p>","","","","","",""
"","","","","","html-button-response","18","2.1.0","74467","test_ykkdfkp81r","","","","2928","<p style=""font-size: 25px;"">Suppose someone told you about a creature that could <strong>experience pain</strong>. <br>Which of these two other abilities do you think the creature would also have?</p>","1","","similarity","experience pain","kick something","get tired","<p style=""font-size: 20px;"">The ability to <strong>get tired</strong></p>","","","","","",""
"","","","","","instructions","19","2.1.0","76137","test_ykkdfkp81r","","","","1668","","","[{""page_index"":0,""viewing_time"":1668}]","","","","","","","","","","",""
"","","","","","survey-html-form","20","2.1.0","89285","test_ykkdfkp81r","","","demographics_survey","13145","","{""feedback"":""N/A"",""age"":""33"",""gender"":""Male"",""other_gender"":"""",""race"":""White"",""other_race"":"""",""ethnicity"":""Non-Hispanic""}","","","","","","","","N/A","33","Non-Hispanic","Male","White"
