"success","timeout","failed_images","failed_audio","failed_video","trial_type","trial_index","plugin_version","time_elapsed","mturk_participant_id","mturk_assignment_id","mturk_project_id","trial_id","rt","stimulus","response","view_history","condition","correct_response_attn","selected_choice","itemB","causal_itemA","similar_itemA","feedback","age","ethnicity","gender","race"
"true","false","[]","[]","[]","preload","0","2.1.0","6","test_z55jmtdyty","","","","","","","","","","","","","","","","","",""
"","","","","","html-button-response","1","2.1.0","5497","test_z55jmtdyty","","","consent","5489","<p><b>Consent Form</b></p> <div style=""text-align:left;background-color:lightblue; padding:2vw; max-width:80vw;""><p><b>Purpose:</b> This is a study demo; the purpose of the study is to understand how people think about the physical and social world.</p><p><b>Procedures:</b> In this study, you will watch videos, read sentences, or see pictures, and answer simple questions about them. This study should take approximately 4 minutes</p><p><b>Participation:</b> Participation in this study is voluntary. If you decide to join now, you can change your mind later. <p><b>Risks and benefits:</b> There are no risks associated with participating in this study. There are no direct benefits associated with participating in this study. </p><p><b>Use of data by study researchers:</b> The research team led by Shari Liu at JHU will have access to your answers. Researcher contact information:</b> This study is run by Dr. Shari Liu at JHU. If you have any questions or concerns about this study, or in the very unlikely event of a research-related injury, please contact sliu199@jhu.edu. <p> Do you consent to participate? </p>","0","","","","","","","","","","","",""
"","","","","","instructions","2","2.1.0","14836","test_z55jmtdyty","","","","9339","","","[{""page_index"":0,""viewing_time"":9339}]","","","","","","","","","","",""
"","","","","","html-button-response","3","2.1.0","20918","test_z55jmtdyty","","","","6081","<p style=""font-size: 25px;"">For this question, please select ""I would make them <strong>""choose what to do""</strong>""</p>","0","","attention_check","choose what to do","I would make them choose what to do","","","","","","","",""
"","","","","","html-button-response","4","2.1.0","28122","test_z55jmtdyty","","","","7202","<p style=""font-size: 25px;"">Which of these actions would you do to make someone <strong>get tired</strong>?</p>","1","","intervention","","<p style=""font-size: 20px;"">I would make them <strong>jump up and down</strong></p>","get tired","jump up and down","feel scared","","","","",""
"","","","","","html-button-response","5","2.1.0","38028","test_z55jmtdyty","","","","9905","<p style=""font-size: 25px;"">Which of these actions would you do to make someone <strong>take a walk</strong>?</p>","1","","intervention","","<p style=""font-size: 20px;"">I would make them <strong>think about something</strong></p>","take a walk","think about something","sit down","","","","",""
"","","","","","html-button-response","6","2.1.0","41478","test_z55jmtdyty","","","","3449","<p style=""font-size: 25px;"">Which of these actions would you do to make someone <strong>become hungry</strong>?</p>","1","","intervention","","<p style=""font-size: 20px;"">I would make them <strong>take a walk</strong></p>","become hungry","take a walk","feel scared","","","","",""
"","","","","","html-button-response","7","2.1.0","47631","test_z55jmtdyty","","","","6151","<p style=""font-size: 25px;"">Which of these actions would you do to make someone <strong>sit down</strong>?</p>","0","","intervention","","<p style=""font-size: 20px;"">I would make them <strong>jump up and down</strong></p>","sit down","experience pain","jump up and down","","","","",""
"","","","","","html-button-response","8","2.1.0","51858","test_z55jmtdyty","","","","4226","<p style=""font-size: 25px;"">Which of these actions would you do to make someone <strong>get sick</strong>?</p>","1","","intervention","","<p style=""font-size: 20px;"">I would make them <strong>see something</strong></p>","get sick","see something","get tired","","","","",""
"","","","","","html-button-response","9","2.1.0","54718","test_z55jmtdyty","","","","2859","<p style=""font-size: 25px;"">Which of these actions would you do to make someone <strong>think about something</strong>?</p>","1","","intervention","","<p style=""font-size: 20px;"">I would make them <strong>remember something</strong></p>","think about something","get sick","remember something","","","","",""
"","","","","","html-button-response","10","2.1.0","57568","test_z55jmtdyty","","","","2849","<p style=""font-size: 25px;"">Which of these actions would you do to make someone <strong>remember something</strong>?</p>","0","","intervention","","<p style=""font-size: 20px;"">I would make them <strong>think about something</strong></p>","remember something","take a walk","think about something","","","","",""
"","","","","","html-button-response","11","2.1.0","60160","test_z55jmtdyty","","","","2592","<p style=""font-size: 25px;"">Which of these actions would you do to make someone <strong>feel scared</strong>?</p>","1","","intervention","","<p style=""font-size: 20px;"">I would make them <strong>see something</strong></p>","feel scared","see something","get tired","","","","",""
"","","","","","html-button-response","12","2.1.0","64735","test_z55jmtdyty","","","","4573","<p style=""font-size: 25px;"">Which of these actions would you do to make someone <strong>hear something</strong>?</p>","1","","intervention","","<p style=""font-size: 20px;"">I would make them <strong>take a walk</strong></p>","hear something","take a walk","see something","","","","",""
"","","","","","html-button-response","13","2.1.0","69184","test_z55jmtdyty","","","","4449","<p style=""font-size: 25px;"">Which of these actions would you do to make someone <strong>reach for something</strong>?</p>","1","","intervention","","<p style=""font-size: 20px;"">I would make them <strong>become hungry</strong></p>","reach for something","become hungry","kick something","","","","",""
"","","","","","html-button-response","14","2.1.0","74166","test_z55jmtdyty","","","","4981","<p style=""font-size: 25px;"">Which of these actions would you do to make someone <strong>jump up and down</strong>?</p>","1","","intervention","","<p style=""font-size: 20px;"">I would make them <strong>see something</strong></p>","jump up and down","see something","sit down","","","","",""
"","","","","","html-button-response","15","2.1.0","83070","test_z55jmtdyty","","","","8903","<p style=""font-size: 25px;"">Which of these actions would you do to make someone <strong>choose what to do</strong>?</p>","1","","intervention","","<p style=""font-size: 20px;"">I would make them <strong>remember something</strong></p>","choose what to do","experience pain","remember something","","","","",""
"","","","","","html-button-response","16","2.1.0","86788","test_z55jmtdyty","","","","3717","<p style=""font-size: 25px;"">Which of these actions would you do to make someone <strong>see something</strong>?</p>","0","","intervention","","<p style=""font-size: 20px;"">I would make them <strong>take a walk</strong></p>","see something","take a walk","hear something","","","","",""
"","","","","","html-button-response","17","2.1.0","89290","test_z55jmtdyty","","","","2501","<p style=""font-size: 25px;"">Which of these actions would you do to make someone <strong>experience pain</strong>?</p>","1","","intervention","","<p style=""font-size: 20px;"">I would make them <strong>kick something</strong></p>","experience pain","kick something","get tired","","","","",""
"","","","","","html-button-response","18","2.1.0","92388","test_z55jmtdyty","","","","3097","<p style=""font-size: 25px;"">Which of these actions would you do to make someone <strong>kick something</strong>?</p>","1","","intervention","","<p style=""font-size: 20px;"">I would make them <strong>think about something</strong></p>","kick something","think about something","sit down","","","","",""
"","","","","","instructions","19","2.1.0","96362","test_z55jmtdyty","","","","3973","","","[{""page_index"":0,""viewing_time"":3973}]","","","","","","","","","","",""
"","","","","","survey-html-form","20","2.1.0","134603","test_z55jmtdyty","","","demographics_survey","38238","","{""feedback"":""I chose what I thought would get the outcome"",""age"":""55"",""gender"":""Female"",""other_gender"":"""",""race"":""White"",""other_race"":"""",""ethnicity"":""Non-Hispanic""}","","","","","","","","I chose what I thought would get the outcome","55","Non-Hispanic","Female","White"
